# Source flux on BL6
# NOTE: this source spectrum is a polynomial fit of the measured flux, WITHOUT detector efficiency correction.
# This way, the detector efficiency correction is already taken into account.
#
WL	n/A/cm^2/MW
WL step=	0.005
WL partition at	4
0.5	0.000366691
0.505	0.000442893
0.51	0.000534301
0.515	0.000643822
0.52	0.000774888
0.525	0.000931556
0.53	0.001118607
0.535	0.001341673
0.54	0.001607383
0.545	0.001923524
0.55	0.002299236
0.555	0.002745235
0.56	0.00327407
0.565	0.003900415
0.57	0.004641416
0.575	0.00551708
0.58	0.006550725
0.585	0.007769499
0.59	0.00920497
0.595	0.010893808
0.6	0.012878557
0.605	0.015208525
0.61	0.017940789
0.615	0.021141351
0.62	0.024886445
0.625	0.029264028
0.63	0.034375467
0.635	0.040337461
0.64	0.047284206
0.645	0.055369853
0.65	0.064771286
0.655	0.07569125
0.66	0.088361885
0.665	0.103048701
0.67	0.120055053
0.675	0.139727163
0.68	0.162459763
0.685	0.188702416
0.69	0.218966593
0.695	0.253833595
0.7	0.293963393
0.705	0.340104503
0.71	0.393104985
0.715	0.453924698
0.72	0.523648926
0.725	0.603503512
0.73	0.694871666
0.735	0.799312582
0.74	0.918582063
0.745	1.054655331
0.75	1.209752235
0.755	1.386365062
0.76	1.587289207
0.765	1.815656951
0.77	2.074974616
0.775	2.369163394
0.78	2.702604174
0.785	3.080186688
0.79	3.507363354
0.795	3.990208183
0.8	4.535481172
0.805	5.15069861
0.81	5.844209764
0.815	6.62528043
0.82	7.504183871
0.825	8.492299686
0.83	9.602221197
0.835	10.84787195
0.84	12.24463197
0.845	13.8094745
0.85	15.56111382
0.855	17.52016497
0.86	19.70931616
0.865	22.15351465
0.87	24.88016684
0.875	27.91935369
0.88	31.30406213
0.885	35.0704335
0.89	39.25803008
0.895	43.91012056
0.9	49.07398556
0.905	54.8012443
0.91	61.1482035
0.915	68.17622948
0.92	75.9521449
0.925	84.548651
0.93	94.04477672
0.935	104.5263558
0.94	116.0865331
0.945	128.8263016
0.95	142.8550703
0.955	158.2912665
0.96	175.2629703
0.965	193.9085862
0.97	214.3775501
0.975	236.8310747
0.98	261.4429333
0.985	288.4002841
0.99	317.9045355
0.995	350.1722532
1	385.4361114
1.005	423.9458873
1.01	465.9695011
1.015	511.794102
1.02	561.7272001
1.025	616.0978469
1.03	675.2578623
1.035	739.5831108
1.04	809.4748257
1.045	885.3609831
1.05	967.6977241
1.055	1056.970826
1.06	1153.697224
1.065	1258.426576
1.07	1371.742886
1.075	1494.266161
1.08	1626.654128
1.085	1769.603984
1.09	1923.854203
1.095	2090.186373
1.1	2269.427088
1.105	2462.449864
1.11	2670.177107
1.115	2893.582109
1.12	3133.691076
1.125	3391.585189
1.13	3668.402693
1.135	3965.341005
1.14	4283.65885
1.145	4624.678406
1.15	4989.78747
1.155	5380.441628
1.16	5798.16643
1.165	6244.55957
1.17	6721.293053
1.175	7230.115365
1.18	7772.853613
1.185	8351.41566
1.19	8967.792221
1.195	9624.05894
1.2	10322.37842
1.205	11065.00221
1.21	11854.27275
1.215	12692.62525
1.22	13582.58951
1.225	14526.79169
1.23	15527.95595
1.235	16588.90607
1.24	17712.56692
1.245	18901.9659
1.25	20160.23423
1.255	21490.60811
1.26	22896.42982
1.265	24381.14863
1.27	25948.32167
1.275	27601.61454
1.28	29344.80185
1.285	31181.76765
1.29	33116.50554
1.295	35153.11881
1.3	37295.82028
1.305	39548.932
1.31	41916.88474
1.315	44404.21739
1.32	47015.576
1.325	49755.71279
1.33	52629.48482
1.335	55641.85255
1.34	58797.87816
1.345	62102.72358
1.35	65561.64845
1.355	69180.00772
1.36	72963.24911
1.365	76916.9103
1.37	81046.61593
1.375	85358.07434
1.38	89857.07411
1.385	94549.48037
1.39	99441.23086
1.395	104538.3318
1.4	109846.8534
1.405	115372.9256
1.41	121122.7328
1.415	127102.5093
1.42	133318.5335
1.425	139777.1231
1.43	146484.6291
1.435	153447.43
1.44	160671.9256
1.445	168164.5313
1.45	175931.6712
1.455	183979.7717
1.46	192315.2552
1.465	200944.5324
1.47	209873.9961
1.475	219110.0137
1.48	228658.9198
1.485	238527.0094
1.49	248720.5297
1.495	259245.673
1.5	270108.5689
1.505	281315.277
1.51	292871.7783
1.515	304783.9682
1.52	317057.6483
1.525	329698.5185
1.53	342712.1695
1.535	356104.0745
1.54	369879.5817
1.545	384043.9063
1.55	398602.1231
1.555	413559.1583
1.56	428919.7824
1.565	444688.6024
1.57	460870.0545
1.575	477468.3968
1.58	494487.702
1.585	511931.8505
1.59	529804.5235
1.595	548109.1964
1.6	566849.132
1.605	586027.3743
1.61	605646.7425
1.615	625709.8247
1.62	646218.9727
1.625	667176.2959
1.63	688583.6567
1.635	710442.665
1.64	732754.6739
1.645	755520.7748
1.65	778741.7936
1.655	802418.2867
1.66	826550.5373
1.665	851138.5523
1.67	876182.0592
1.675	901680.5033
1.68	927633.0455
1.685	954038.5603
1.69	980895.6339
1.695	1008202.563
1.7	1035957.354
1.705	1064157.721
1.71	1092801.087
1.715	1121884.582
1.72	1151405.048
1.725	1181359.031
1.73	1211742.791
1.735	1242552.297
1.74	1273783.232
1.745	1305430.993
1.75	1337490.694
1.755	1369957.17
1.76	1402824.976
1.765	1436088.395
1.77	1469741.438
1.775	1503777.849
1.78	1538191.108
1.785	1572974.44
1.79	1608120.811
1.795	1643622.942
1.8	1679473.308
1.805	1715664.146
1.81	1752187.462
1.815	1789035.032
1.82	1826198.414
1.825	1863668.95
1.83	1901437.776
1.835	1939495.826
1.84	1977833.839
1.845	2016442.369
1.85	2055311.79
1.855	2094432.304
1.86	2133793.947
1.865	2173386.6
1.87	2213199.995
1.875	2253223.723
1.88	2293447.241
1.885	2333859.883
1.89	2374450.866
1.895	2415209.299
1.9	2456124.191
1.905	2497184.459
1.91	2538378.939
1.915	2579696.391
1.92	2621125.51
1.925	2662654.933
1.93	2704273.248
1.935	2745969.003
1.94	2787730.714
1.945	2829546.872
1.95	2871405.955
1.955	2913296.43
1.96	2955206.77
1.965	2997125.453
1.97	3039040.977
1.975	3080941.864
1.98	3122816.668
1.985	3164653.987
1.99	3206442.465
1.995	3248170.801
2	3289827.76
2.005	3331402.175
2.01	3372882.959
2.015	3414259.108
2.02	3455519.708
2.025	3496653.946
2.03	3537651.111
2.035	3578500.604
2.04	3619191.94
2.045	3659714.76
2.05	3700058.832
2.055	3740214.057
2.06	3780170.477
2.065	3819918.276
2.07	3859447.789
2.075	3898749.505
2.08	3937814.072
2.085	3976632.3
2.09	4015195.167
2.095	4053493.821
2.1	4091519.587
2.105	4129263.966
2.11	4166718.644
2.115	4203875.49
2.12	4240726.56
2.125	4277264.102
2.13	4313480.558
2.135	4349368.564
2.14	4384920.954
2.145	4420130.764
2.15	4454991.228
2.155	4489495.784
2.16	4523638.077
2.165	4557411.953
2.17	4590811.469
2.175	4623830.886
2.18	4656464.675
2.185	4688707.515
2.19	4720554.294
2.195	4752000.107
2.2	4783040.26
2.205	4813670.267
2.21	4843885.85
2.215	4873682.939
2.22	4903057.671
2.225	4932006.388
2.23	4960525.64
2.235	4988612.178
2.24	5016262.957
2.245	5043475.136
2.25	5070246.07
2.255	5096573.314
2.26	5122454.622
2.265	5147887.94
2.27	5172871.407
2.275	5197403.354
2.28	5221482.301
2.285	5245106.953
2.29	5268276.199
2.295	5290989.112
2.3	5313244.942
2.305	5335043.115
2.31	5356383.233
2.315	5377265.067
2.32	5397688.558
2.325	5417653.813
2.33	5437161.099
2.335	5456210.844
2.34	5474803.632
2.345	5492940.203
2.35	5510621.445
2.355	5527848.392
2.36	5544622.226
2.365	5560944.266
2.37	5576815.972
2.375	5592238.936
2.38	5607214.881
2.385	5621745.66
2.39	5635833.249
2.395	5649479.745
2.4	5662687.364
2.405	5675458.435
2.41	5687795.401
2.415	5699700.809
2.42	5711177.315
2.425	5722227.672
2.43	5732854.735
2.435	5743061.451
2.44	5752850.86
2.445	5762226.088
2.45	5771190.35
2.455	5779746.938
2.46	5787899.227
2.465	5795650.663
2.47	5803004.769
2.475	5809965.134
2.48	5816535.414
2.485	5822719.328
2.49	5828520.655
2.495	5833943.232
2.5	5838990.948
2.505	5843667.746
2.51	5847977.616
2.515	5851924.594
2.52	5855512.758
2.525	5858746.226
2.53	5861629.156
2.535	5864165.737
2.54	5866360.193
2.545	5868216.776
2.55	5869739.766
2.555	5870933.468
2.56	5871802.208
2.565	5872350.332
2.57	5872582.205
2.575	5872502.205
2.58	5872114.726
2.585	5871424.17
2.59	5870434.949
2.595	5869151.482
2.6	5867578.193
2.605	5865719.507
2.61	5863579.851
2.615	5861163.651
2.62	5858475.33
2.625	5855519.305
2.63	5852299.988
2.635	5848821.784
2.64	5845089.084
2.645	5841106.272
2.65	5836877.718
2.655	5832407.776
2.66	5827700.786
2.665	5822761.069
2.67	5817592.93
2.675	5812200.651
2.68	5806588.496
2.685	5800760.704
2.69	5794721.493
2.695	5788475.054
2.7	5782025.554
2.705	5775377.132
2.71	5768533.9
2.715	5761499.94
2.72	5754279.307
2.725	5746876.023
2.73	5739294.079
2.735	5731537.435
2.74	5723610.017
2.745	5715515.717
2.75	5707258.395
2.755	5698841.873
2.76	5690269.939
2.765	5681546.344
2.77	5672674.803
2.775	5663658.993
2.78	5654502.554
2.785	5645209.087
2.79	5635782.154
2.795	5626225.28
2.8	5616541.947
2.805	5606735.602
2.81	5596809.648
2.815	5586767.448
2.82	5576612.327
2.825	5566347.566
2.83	5555976.408
2.835	5545502.052
2.84	5534927.658
2.845	5524256.342
2.85	5513491.18
2.855	5502635.208
2.86	5491691.416
2.865	5480662.755
2.87	5469552.134
2.875	5458362.42
2.88	5447096.437
2.885	5435756.97
2.89	5424346.758
2.895	5412868.503
2.9	5401324.862
2.905	5389718.451
2.91	5378051.847
2.915	5366327.583
2.92	5354548.152
2.925	5342716.006
2.93	5330833.555
2.935	5318903.172
2.94	5306927.185
2.945	5294907.884
2.95	5282847.52
2.955	5270748.303
2.96	5258612.403
2.965	5246441.951
2.97	5234239.041
2.975	5222005.724
2.98	5209744.018
2.985	5197455.897
2.99	5185143.302
2.995	5172808.133
3	5160452.255
3.005	5148077.494
3.01	5135685.642
3.015	5123278.451
3.02	5110857.639
3.025	5098424.889
3.03	5085981.848
3.035	5073530.127
3.04	5061071.304
3.045	5048606.92
3.05	5036138.486
3.055	5023667.475
3.06	5011195.329
3.065	4998723.458
3.07	4986253.238
3.075	4973786.013
3.08	4961323.094
3.085	4948865.764
3.09	4936415.271
3.095	4923972.835
3.1	4911539.644
3.105	4899116.857
3.11	4886705.603
3.115	4874306.982
3.12	4861922.064
3.125	4849551.892
3.13	4837197.481
3.135	4824859.817
3.14	4812539.86
3.145	4800238.541
3.15	4787956.765
3.155	4775695.414
3.16	4763455.339
3.165	4751237.368
3.17	4739042.305
3.175	4726870.927
3.18	4714723.988
3.185	4702602.217
3.19	4690506.32
3.195	4678436.979
3.2	4666394.853
3.205	4654380.579
3.21	4642394.772
3.215	4630438.023
3.22	4618510.903
3.225	4606613.962
3.23	4594747.729
3.235	4582912.711
3.24	4571109.396
3.245	4559338.252
3.25	4547599.727
3.255	4535894.249
3.26	4524222.23
3.265	4512584.059
3.27	4500980.111
3.275	4489410.74
3.28	4477876.284
3.285	4466377.063
3.29	4454913.379
3.295	4443485.52
3.3	4432093.754
3.305	4420738.335
3.31	4409419.502
3.315	4398137.476
3.32	4386892.465
3.325	4375684.66
3.33	4364514.239
3.335	4353381.364
3.34	4342286.184
3.345	4331228.835
3.35	4320209.438
3.355	4309228.099
3.36	4298284.915
3.365	4287379.967
3.37	4276513.325
3.375	4265685.047
3.38	4254895.176
3.385	4244143.747
3.39	4233430.782
3.395	4222756.291
3.4	4212120.274
3.405	4201522.719
3.41	4190963.605
3.415	4180442.899
3.42	4169960.559
3.425	4159516.534
3.43	4149110.76
3.435	4138743.167
3.44	4128413.673
3.445	4118122.191
3.45	4107868.62
3.455	4097652.854
3.46	4087474.779
3.465	4077334.269
3.47	4067231.194
3.475	4057165.415
3.48	4047136.783
3.485	4037145.147
3.49	4027190.342
3.495	4017272.202
3.5	4007390.551
3.505	3997545.207
3.51	3987735.981
3.515	3977962.679
3.52	3968225.101
3.525	3958523.038
3.53	3948856.279
3.535	3939224.606
3.54	3929627.796
3.545	3920065.618
3.55	3910537.841
3.555	3901044.225
3.56	3891584.526
3.565	3882158.496
3.57	3872765.883
3.575	3863406.43
3.58	3854079.876
3.585	3844785.956
3.59	3835524.401
3.595	3826294.939
3.6	3817097.292
3.605	3807931.182
3.61	3798796.326
3.615	3789692.438
3.62	3780619.229
3.625	3771576.407
3.63	3762563.677
3.635	3753580.742
3.64	3744627.303
3.645	3735703.057
3.65	3726807.7
3.655	3717940.925
3.66	3709102.425
3.665	3700291.889
3.67	3691509.005
3.675	3682753.46
3.68	3674024.938
3.685	3665323.123
3.69	3656647.697
3.695	3647998.342
3.7	3639374.737
3.705	3630776.562
3.71	3622203.494
3.715	3613655.212
3.72	3605131.393
3.725	3596631.713
3.73	3588155.848
3.735	3579703.473
3.74	3571274.265
3.745	3562867.899
3.75	3554484.05
3.755	3546122.394
3.76	3537782.607
3.765	3529464.364
3.77	3521167.343
3.775	3512891.22
3.78	3504635.673
3.785	3496400.379
3.79	3488185.018
3.795	3479989.27
3.8	3471812.815
3.805	3463655.334
3.81	3455516.512
3.815	3447396.031
3.82	3439293.577
3.825	3431208.836
3.83	3423141.497
3.835	3415091.25
3.84	3407057.784
3.845	3399040.794
3.85	3391039.974
3.855	3383055.02
3.86	3375085.631
3.865	3367131.507
3.87	3359192.35
3.875	3351267.864
3.88	3343357.758
3.885	3335461.739
3.89	3327579.519
3.895	3319710.812
3.9	3311855.334
3.905	3304012.804
3.91	3296182.943
3.915	3288365.475
3.92	3280560.128
3.925	3272766.631
3.93	3264984.716
3.935	3257214.12
3.94	3249454.58
3.945	3241705.839
3.95	3233967.641
3.955	3226239.734
3.96	3218521.869
3.965	3210813.801
3.97	3203115.288
3.975	3195426.09
3.98	3187745.974
3.985	3180074.706
3.99	3172412.06
3.995	3164757.81
4	3157111.735
4.005	3225494.341
4.01	3214740.257
4.015	3204024.568
4.02	3193347.129
4.025	3182707.796
4.03	3172106.423
4.035	3161542.867
4.04	3151016.985
4.045	3140528.634
4.05	3130077.673
4.055	3119663.96
4.06	3109287.354
4.065	3098947.715
4.07	3088644.903
4.075	3078378.779
4.08	3068149.205
4.085	3057956.042
4.09	3047799.152
4.095	3037678.399
4.1	3027593.647
4.105	3017544.759
4.11	3007531.6
4.115	2997554.035
4.12	2987611.931
4.125	2977705.153
4.13	2967833.567
4.135	2957997.043
4.14	2948195.446
4.145	2938428.647
4.15	2928696.512
4.155	2918998.913
4.16	2909335.719
4.165	2899706.8
4.17	2890112.027
4.175	2880551.273
4.18	2871024.408
4.185	2861531.305
4.19	2852071.838
4.195	2842645.879
4.2	2833253.303
4.205	2823893.985
4.21	2814567.799
4.215	2805274.621
4.22	2796014.326
4.225	2786786.792
4.23	2777591.896
4.235	2768429.514
4.24	2759299.524
4.245	2750201.806
4.25	2741136.238
4.255	2732102.699
4.26	2723101.07
4.265	2714131.23
4.27	2705193.06
4.275	2696286.443
4.28	2687411.259
4.285	2678567.39
4.29	2669754.72
4.295	2660973.131
4.3	2652222.508
4.305	2643502.734
4.31	2634813.693
4.315	2626155.271
4.32	2617527.354
4.325	2608929.826
4.33	2600362.575
4.335	2591825.487
4.34	2583318.449
4.345	2574841.35
4.35	2566394.076
4.355	2557976.518
4.36	2549588.563
4.365	2541230.101
4.37	2532901.023
4.375	2524601.218
4.38	2516330.577
4.385	2508088.991
4.39	2499876.352
4.395	2491692.553
4.4	2483537.484
4.405	2475411.04
4.41	2467313.113
4.415	2459243.597
4.42	2451202.387
4.425	2443189.377
4.43	2435204.462
4.435	2427247.536
4.44	2419318.497
4.445	2411417.24
4.45	2403543.662
4.455	2395697.66
4.46	2387879.131
4.465	2380087.973
4.47	2372324.084
4.475	2364587.364
4.48	2356877.71
4.485	2349195.022
4.49	2341539.2
4.495	2333910.145
4.5	2326307.757
4.505	2318731.936
4.51	2311182.585
4.515	2303659.604
4.52	2296162.897
4.525	2288692.365
4.53	2281247.912
4.535	2273829.44
4.54	2266436.854
4.545	2259070.058
4.55	2251728.955
4.555	2244413.451
4.56	2237123.451
4.565	2229858.86
4.57	2222619.584
4.575	2215405.53
4.58	2208216.604
4.585	2201052.712
4.59	2193913.764
4.595	2186799.665
4.6	2179710.325
4.605	2172645.652
4.61	2165605.554
4.615	2158589.94
4.62	2151598.721
4.625	2144631.806
4.63	2137689.105
4.635	2130770.529
4.64	2123875.988
4.645	2117005.394
4.65	2110158.659
4.655	2103335.694
4.66	2096536.412
4.665	2089760.726
4.67	2083008.547
4.675	2076279.791
4.68	2069574.369
4.685	2062892.197
4.69	2056233.189
4.695	2049597.258
4.7	2042984.321
4.705	2036394.293
4.71	2029827.088
4.715	2023282.624
4.72	2016760.816
4.725	2010261.581
4.73	2003784.837
4.735	1997330.499
4.74	1990898.486
4.745	1984488.716
4.75	1978101.107
4.755	1971735.578
4.76	1965392.046
4.765	1959070.433
4.77	1952770.656
4.775	1946492.636
4.78	1940236.293
4.785	1934001.548
4.79	1927788.32
4.795	1921596.532
4.8	1915426.104
4.805	1909276.958
4.81	1903149.017
4.815	1897042.201
4.82	1890956.435
4.825	1884891.64
4.83	1878847.74
4.835	1872824.658
4.84	1866822.318
4.845	1860840.644
4.85	1854879.561
4.855	1848938.993
4.86	1843018.865
4.865	1837119.102
4.87	1831239.629
4.875	1825380.373
4.88	1819541.26
4.885	1813722.215
4.89	1807923.166
4.895	1802144.039
4.9	1796384.762
4.905	1790645.261
4.91	1784925.466
4.915	1779225.304
4.92	1773544.703
4.925	1767883.591
4.93	1762241.899
4.935	1756619.554
4.94	1751016.486
4.945	1745432.626
4.95	1739867.902
4.955	1734322.245
4.96	1728795.587
4.965	1723287.856
4.97	1717798.985
4.975	1712328.904
4.98	1706877.546
4.985	1701444.842
4.99	1696030.725
4.995	1690635.125
5	1685257.977
5.005	1679899.213
5.01	1674558.766
5.015	1669236.57
5.02	1663932.558
5.025	1658646.664
5.03	1653378.822
5.035	1648128.967
5.04	1642897.033
5.045	1637682.955
5.05	1632486.669
5.055	1627308.109
5.06	1622147.211
5.065	1617003.912
5.07	1611878.148
5.075	1606769.854
5.08	1601678.967
5.085	1596605.425
5.09	1591549.164
5.095	1586510.122
5.1	1581488.237
5.105	1576483.445
5.11	1571495.686
5.115	1566524.898
5.12	1561571.018
5.125	1556633.987
5.13	1551713.742
5.135	1546810.224
5.14	1541923.371
5.145	1537053.123
5.15	1532199.421
5.155	1527362.204
5.16	1522541.414
5.165	1517736.989
5.17	1512948.872
5.175	1508177.004
5.18	1503421.325
5.185	1498681.777
5.19	1493958.303
5.195	1489250.843
5.2	1484559.341
5.205	1479883.738
5.21	1475223.977
5.215	1470580.002
5.22	1465951.754
5.225	1461339.178
5.23	1456742.217
5.235	1452160.815
5.24	1447594.915
5.245	1443044.462
5.25	1438509.4
5.255	1433989.674
5.26	1429485.228
5.265	1424996.008
5.27	1420521.958
5.275	1416063.025
5.28	1411619.153
5.285	1407190.288
5.29	1402776.378
5.295	1398377.366
5.3	1393993.201
5.305	1389623.829
5.31	1385269.197
5.315	1380929.251
5.32	1376603.94
5.325	1372293.21
5.33	1367997.008
5.335	1363715.284
5.34	1359447.985
5.345	1355195.059
5.35	1350956.455
5.355	1346732.121
5.36	1342522.006
5.365	1338326.059
5.37	1334144.23
5.375	1329976.467
5.38	1325822.721
5.385	1321682.941
5.39	1317557.077
5.395	1313445.08
5.4	1309346.899
5.405	1305262.485
5.41	1301191.789
5.415	1297134.762
5.42	1293091.355
5.425	1289061.52
5.43	1285045.207
5.435	1281042.368
5.44	1277052.956
5.445	1273076.922
5.45	1269114.218
5.455	1265164.798
5.46	1261228.612
5.465	1257305.615
5.47	1253395.759
5.475	1249498.997
5.48	1245615.283
5.485	1241744.569
5.49	1237886.81
5.495	1234041.96
5.5	1230209.971
5.505	1226390.799
5.51	1222584.398
5.515	1218790.722
5.52	1215009.727
5.525	1211241.365
5.53	1207485.594
5.535	1203742.368
5.54	1200011.642
5.545	1196293.371
5.55	1192587.513
5.555	1188894.021
5.56	1185212.853
5.565	1181543.965
5.57	1177887.313
5.575	1174242.852
5.58	1170610.541
5.585	1166990.336
5.59	1163382.194
5.595	1159786.072
5.6	1156201.927
5.605	1152629.717
5.61	1149069.4
5.615	1145520.933
5.62	1141984.274
5.625	1138459.381
5.63	1134946.213
5.635	1131444.729
5.64	1127954.885
5.645	1124476.643
5.65	1121009.959
5.655	1117554.794
5.66	1114111.107
5.665	1110678.856
5.67	1107258.002
5.675	1103848.503
5.68	1100450.321
5.685	1097063.414
5.69	1093687.744
5.695	1090323.269
5.7	1086969.951
5.705	1083627.751
5.71	1080296.628
5.715	1076976.544
5.72	1073667.459
5.725	1070369.336
5.73	1067082.134
5.735	1063805.816
5.74	1060540.344
5.745	1057285.678
5.75	1054041.781
5.755	1050808.614
5.76	1047586.141
5.765	1044374.322
5.77	1041173.121
5.775	1037982.501
5.78	1034802.423
5.785	1031632.851
5.79	1028473.747
5.795	1025325.076
5.8	1022186.799
5.805	1019058.881
5.81	1015941.285
5.815	1012833.975
5.82	1009736.914
5.825	1006650.066
5.83	1003573.397
5.835	1000506.868
5.84	997450.4462
5.845	994404.0946
5.85	991367.7781
5.855	988341.4615
5.86	985325.1097
5.865	982318.6875
5.87	979322.1603
5.875	976335.4931
5.88	973358.6515
5.885	970391.601
5.89	967434.3071
5.895	964486.7356
5.9	961548.8525
5.905	958620.6238
5.91	955702.0156
5.915	952792.9943
5.92	949893.5261
5.925	947003.5777
5.93	944123.1157
5.935	941252.1068
5.94	938390.518
5.945	935538.3163
5.95	932695.4688
5.955	929861.9428
5.96	927037.7057
5.965	924222.725
5.97	921416.9683
5.975	918620.4033
5.98	915832.998
5.985	913054.7203
5.99	910285.5383
5.995	907525.4203
6	904774.3345
6.005	902032.2495
6.01	899299.1338
6.015	896574.9561
6.02	893859.6851
6.025	891153.2899
6.03	888455.7395
6.035	885767.003
6.04	883087.0496
6.045	880415.8488
6.05	877753.37
6.055	875099.5829
6.06	872454.4571
6.065	869817.9625
6.07	867190.0691
6.075	864570.7467
6.08	861959.9658
6.085	859357.6964
6.09	856763.9089
6.095	854178.574
6.1	851601.6621
6.105	849033.1439
6.11	846472.9904
6.115	843921.1723
6.12	841377.6607
6.125	838842.4268
6.13	836315.4418
6.135	833796.6771
6.14	831286.104
6.145	828783.6942
6.15	826289.4192
6.155	823803.251
6.16	821325.1613
6.165	818855.1221
6.17	816393.1055
6.175	813939.0836
6.18	811493.0288
6.185	809054.9135
6.19	806624.71
6.195	804202.391
6.2	801787.9292
6.205	799381.2974
6.21	796982.4684
6.215	794591.4152
6.22	792208.111
6.225	789832.5288
6.23	787464.6421
6.235	785104.424
6.24	782751.8482
6.245	780406.8882
6.25	778069.5177
6.255	775739.7104
6.26	773417.4402
6.265	771102.6811
6.27	768795.407
6.275	766495.5923
6.28	764203.211
6.285	761918.2375
6.29	759640.6464
6.295	757370.412
6.3	755107.509
6.305	752851.9121
6.31	750603.5962
6.315	748362.5361
6.32	746128.7067
6.325	743902.0833
6.33	741682.6408
6.335	739470.3547
6.34	737265.2003
6.345	735067.1529
6.35	732876.1882
6.355	730692.2817
6.36	728515.4091
6.365	726345.5463
6.37	724182.6691
6.375	722026.7535
6.38	719877.7756
6.385	717735.7115
6.39	715600.5374
6.395	713472.2296
6.4	711350.7647
6.405	709236.1189
6.41	707128.2691
6.415	705027.1917
6.42	702932.8635
6.425	700845.2615
6.43	698764.3624
6.435	696690.1434
6.44	694622.5814
6.445	692561.6536
6.45	690507.3374
6.455	688459.61
6.46	686418.4488
6.465	684383.8314
6.47	682355.7353
6.475	680334.1381
6.48	678319.0177
6.485	676310.3519
6.49	674308.1185
6.495	672312.2956
6.5	670322.8611
6.505	668339.7933
6.51	666363.0704
6.515	664392.6706
6.52	662428.5723
6.525	660470.7541
6.53	658519.1944
6.535	656573.8719
6.54	654634.7652
6.545	652701.8531
6.55	650775.1144
6.555	648854.5282
6.56	646940.0733
6.565	645031.7289
6.57	643129.4741
6.575	641233.2881
6.58	639343.1502
6.585	637459.0398
6.59	635580.9364
6.595	633708.8195
6.6	631842.6686
6.605	629982.4635
6.61	628128.1839
6.615	626279.8096
6.62	624437.3205
6.625	622600.6965
6.63	620769.9178
6.635	618944.9643
6.64	617125.8164
6.645	615312.4541
6.65	613504.858
6.655	611703.0083
6.66	609906.8855
6.665	608116.4702
6.67	606331.743
6.675	604552.6844
6.68	602779.2754
6.685	601011.4966
6.69	599249.3291
6.695	597492.7536
6.7	595741.7513
6.705	593996.3033
6.71	592256.3906
6.715	590521.9945
6.72	588793.0964
6.725	587069.6775
6.73	585351.7193
6.735	583639.2033
6.74	581932.1111
6.745	580230.4242
6.75	578534.1244
6.755	576843.1934
6.76	575157.613
6.765	573477.3652
6.77	571802.4319
6.775	570132.7951
6.78	568468.4368
6.785	566809.3393
6.79	565155.4847
6.795	563506.8554
6.8	561863.4336
6.805	560225.2018
6.81	558592.1424
6.815	556964.2379
6.82	555341.471
6.825	553723.8242
6.83	552111.2804
6.835	550503.8223
6.84	548901.4327
6.845	547304.0945
6.85	545711.7907
6.855	544124.5043
6.86	542542.2184
6.865	540964.9161
6.87	539392.5806
6.875	537825.1952
6.88	536262.7433
6.885	534705.2082
6.89	533152.5733
6.895	531604.8221
6.9	530061.9383
6.905	528523.9054
6.91	526990.707
6.915	525462.3271
6.92	523938.7492
6.925	522419.9573
6.93	520905.9354
6.935	519396.6672
6.94	517892.137
6.945	516392.3287
6.95	514897.2266
6.955	513406.8147
6.96	511921.0773
6.965	510439.9989
6.97	508963.5636
6.975	507491.7559
6.98	506024.5604
6.985	504561.9615
6.99	503103.9438
6.995	501650.492
7	500201.5907
7.005	498757.2247
7.01	497317.3789
7.015	495882.0379
7.02	494451.1869
7.025	493024.8106
7.03	491602.8942
7.035	490185.4228
7.04	488772.3813
7.045	487363.7551
7.05	485959.5294
7.055	484559.6893
7.06	483164.2203
7.065	481773.1078
7.07	480386.3371
7.075	479003.8938
7.08	477625.7635
7.085	476251.9316
7.09	474882.3839
7.095	473517.106
7.1	472156.0837
7.105	470799.3028
7.11	469446.7491
7.115	468098.4085
7.12	466754.267
7.125	465414.3105
7.13	464078.5252
7.135	462746.897
7.14	461419.4122
7.145	460096.057
7.15	458776.8175
7.155	457461.6801
7.16	456150.631
7.165	454843.6568
7.17	453540.7438
7.175	452241.8785
7.18	450947.0475
7.185	449656.2373
7.19	448369.4345
7.195	447086.6258
7.2	445807.798
7.205	444532.9378
7.21	443262.032
7.215	441995.0674
7.22	440732.0311
7.225	439472.9099
7.23	438217.6908
7.235	436966.3609
7.24	435718.9073
7.245	434475.317
7.25	433235.5774
7.255	431999.6755
7.26	430767.5988
7.265	429539.3344
7.27	428314.8698
7.275	427094.1924
7.28	425877.2896
7.285	424664.1488
7.29	423454.7578
7.295	422249.1039
7.3	421047.1749
7.305	419848.9584
7.31	418654.4422
7.315	417463.6139
7.32	416276.4614
7.325	415092.9725
7.33	413913.1352
7.335	412736.9372
7.34	411564.3667
7.345	410395.4116
7.35	409230.06
7.355	408068.2999
7.36	406910.1195
7.365	405755.507
7.37	404604.4506
7.375	403456.9385
7.38	402312.9591
7.385	401172.5007
7.39	400035.5517
7.395	398902.1005
7.4	397772.1356
7.405	396645.6454
7.41	395522.6186
7.415	394403.0437
7.42	393286.9093
7.425	392174.2042
7.43	391064.9169
7.435	389959.0364
7.44	388856.5512
7.445	387757.4503
7.45	386661.7226
7.455	385569.3568
7.46	384480.3421
7.465	383394.6673
7.47	382312.3214
7.475	381233.2936
7.48	380157.5729
7.485	379085.1485
7.49	378016.0094
7.495	376950.145
7.5	375887.5445
7.505	374828.1971
7.51	373772.0922
7.515	372719.2191
7.52	371669.5673
7.525	370623.1261
7.53	369579.885
7.535	368539.8336
7.54	367502.9614
7.545	366469.2579
7.55	365438.7128
7.555	364411.3157
7.56	363387.0563
7.565	362365.9243
7.57	361347.9096
7.575	360333.0018
7.58	359321.1908
7.585	358312.4665
7.59	357306.8188
7.595	356304.2376
7.6	355304.7129
7.605	354308.2347
7.61	353314.793
7.615	352324.378
7.62	351336.9796
7.625	350352.5881
7.63	349371.1936
7.635	348392.7864
7.64	347417.3567
7.645	346444.8948
7.65	345475.3909
7.655	344508.8355
7.66	343545.2189
7.665	342584.5315
7.67	341626.7638
7.675	340671.9062
7.68	339719.9494
7.685	338770.8837
7.69	337824.6998
7.695	336881.3884
7.7	335940.9399
7.705	335003.3453
7.71	334068.595
7.715	333136.6799
7.72	332207.5908
7.725	331281.3184
7.73	330357.8537
7.735	329437.1873
7.74	328519.3104
7.745	327604.2137
7.75	326691.8883
7.755	325782.3251
7.76	324875.5152
7.765	323971.4496
7.77	323070.1195
7.775	322171.5158
7.78	321275.6299
7.785	320382.4528
7.79	319491.9758
7.795	318604.19
7.8	317719.0869
7.805	316836.6577
7.81	315956.8936
7.815	315079.7861
7.82	314205.3266
7.825	313333.5065
7.83	312464.3171
7.835	311597.7501
7.84	310733.7969
7.845	309872.4491
7.85	309013.6981
7.855	308157.5357
7.86	307303.9534
7.865	306452.9429
7.87	305604.4959
7.875	304758.604
7.88	303915.2591
7.885	303074.4528
7.89	302236.1771
7.895	301400.4236
7.9	300567.1843
7.905	299736.451
7.91	298908.2157
7.915	298082.4702
7.92	297259.2066
7.925	296438.4169
7.93	295620.0929
7.935	294804.2269
7.94	293990.8109
7.945	293179.8369
7.95	292371.2971
7.955	291565.1837
7.96	290761.4887
7.965	289960.2046
7.97	289161.3234
7.975	288364.8374
7.98	287570.739
7.985	286779.0204
7.99	285989.674
7.995	285202.6921
8	284418.0672
8.005	283635.7916
8.01	282855.8579
8.015	282078.2584
8.02	281302.9856
8.025	280530.0322
8.03	279759.3906
8.035	278991.0534
8.04	278225.0132
8.045	277461.2626
8.05	276699.7944
8.055	275940.6011
8.06	275183.6754
8.065	274429.0101
8.07	273676.598
8.075	272926.4317
8.08	272178.5042
8.085	271432.8082
8.09	270689.3365
8.095	269948.0821
8.1	269209.0378
8.105	268472.1966
8.11	267737.5514
8.115	267005.0952
8.12	266274.8209
8.125	265546.7216
8.13	264820.7903
8.135	264097.0202
8.14	263375.4041
8.145	262655.9354
8.15	261938.6071
8.155	261223.4123
8.16	260510.3443
8.165	259799.3963
8.17	259090.5615
8.175	258383.8331
8.18	257679.2044
8.185	256976.6687
8.19	256276.2193
8.195	255577.8496
8.2	254881.5529
8.205	254187.3227
8.21	253495.1523
8.215	252805.0351
8.22	252116.9646
8.225	251430.9344
8.23	250746.9378
8.235	250064.9684
8.24	249385.0198
8.245	248707.0855
8.25	248031.1591
8.255	247357.2342
8.26	246685.3044
8.265	246015.3635
8.27	245347.4049
8.275	244681.4226
8.28	244017.4101
8.285	243355.3612
8.29	242695.2697
8.295	242037.1293
8.3	241380.9339
8.305	240726.6772
8.31	240074.3531
8.315	239423.9555
8.32	238775.4783
8.325	238128.9153
8.33	237484.2604
8.335	236841.5078
8.34	236200.6512
8.345	235561.6846
8.35	234924.6022
8.355	234289.3979
8.36	233656.0657
8.365	233024.5997
8.37	232394.9941
8.375	231767.2429
8.38	231141.3402
8.385	230517.2802
8.39	229895.057
8.395	229274.6649
8.4	228656.0981
8.405	228039.3507
8.41	227424.4171
8.415	226811.2914
8.42	226199.968
8.425	225590.4411
8.43	224982.7052
8.435	224376.7544
8.44	223772.5833
8.445	223170.1861
8.45	222569.5573
8.455	221970.6913
8.46	221373.5825
8.465	220778.2253
8.47	220184.6143
8.475	219592.744
8.48	219002.6087
8.485	218414.2032
8.49	217827.5219
8.495	217242.5593
8.5	216659.3101
8.505	216077.7689
8.51	215497.9303
8.515	214919.7889
8.52	214343.3394
8.525	213768.5764
8.53	213195.4947
8.535	212624.089
8.54	212054.3539
8.545	211486.2842
8.55	210919.8748
8.555	210355.1203
8.56	209792.0155
8.565	209230.5554
8.57	208670.7346
8.575	208112.5482
8.58	207555.9908
8.585	207001.0575
8.59	206447.743
8.595	205896.0424
8.6	205345.9506
8.605	204797.4624
8.61	204250.573
8.615	203705.2772
8.62	203161.5701
8.625	202619.4467
8.63	202078.902
8.635	201539.9311
8.64	201002.5291
8.645	200466.6909
8.65	199932.4118
8.655	199399.6869
8.66	198868.5112
8.665	198338.88
8.67	197810.7884
8.675	197284.2316
8.68	196759.2047
8.685	196235.7031
8.69	195713.7219
8.695	195193.2563
8.7	194674.3017
8.705	194156.8533
8.71	193640.9064
8.715	193126.4564
8.72	192613.4985
8.725	192102.028
8.73	191592.0405
8.735	191083.5311
8.74	190576.4953
8.745	190070.9286
8.75	189566.8262
8.755	189064.1837
8.76	188562.9965
8.765	188063.2601
8.77	187564.97
8.775	187068.1215
8.78	186572.7103
8.785	186078.7319
8.79	185586.1818
8.795	185095.0556
8.8	184605.3488
8.805	184117.0569
8.81	183630.1757
8.815	183144.7008
8.82	182660.6276
8.825	182177.952
8.83	181696.6695
8.835	181216.7758
8.84	180738.2666
8.845	180261.1376
8.85	179785.3845
8.855	179311.0031
8.86	178837.989
8.865	178366.338
8.87	177896.046
8.875	177427.1086
8.88	176959.5217
8.885	176493.2811
8.89	176028.3826
8.895	175564.822
8.9	175102.5953
8.905	174641.6982
8.91	174182.1267
8.915	173723.8766
8.92	173266.9439
8.925	172811.3245
8.93	172357.0142
8.935	171904.0091
8.94	171452.3051
8.945	171001.8983
8.95	170552.7844
8.955	170104.9597
8.96	169658.42
8.965	169213.1615
8.97	168769.1801
8.975	168326.4719
8.98	167885.033
8.985	167444.8595
8.99	167005.9473
8.995	166568.2928
9	166131.8919
9.005	165696.7408
9.01	165262.8356
9.015	164830.1726
9.02	164398.7478
9.025	163968.5574
9.03	163539.5977
9.035	163111.8649
9.04	162685.3551
9.045	162260.0646
9.05	161835.9896
9.055	161413.1264
9.06	160991.4713
9.065	160571.0206
9.07	160151.7705
9.075	159733.7173
9.08	159316.8573
9.085	158901.187
9.09	158486.7026
9.095	158073.4004
9.1	157661.2769
9.105	157250.3285
9.11	156840.5514
9.115	156431.9422
9.12	156024.4972
9.125	155618.2128
9.13	155213.0855
9.135	154809.1117
9.14	154406.288
9.145	154004.6107
9.15	153604.0763
9.155	153204.6814
9.16	152806.4224
9.165	152409.2959
9.17	152013.2983
9.175	151618.4263
9.18	151224.6764
9.185	150832.0451
9.19	150440.5291
9.195	150050.1248
9.2	149660.8289
9.205	149272.638
9.21	148885.5488
9.215	148499.5578
9.22	148114.6616
9.225	147730.8571
9.23	147348.1407
9.235	146966.5092
9.24	146585.9592
9.245	146206.4875
9.25	145828.0908
9.255	145450.7657
9.26	145074.5091
9.265	144699.3175
9.27	144325.1879
9.275	143952.1169
9.28	143580.1013
9.285	143209.1379
9.29	142839.2235
9.295	142470.3549
9.3	142102.5289
9.305	141735.7423
9.31	141369.9919
9.315	141005.2746
9.32	140641.5873
9.325	140278.9268
9.33	139917.2899
9.335	139556.6736
9.34	139197.0748
9.345	138838.4903
9.35	138480.9171
9.355	138124.3521
9.36	137768.7923
9.365	137414.2344
9.37	137060.6757
9.375	136708.1128
9.38	136356.543
9.385	136005.9631
9.39	135656.3701
9.395	135307.7611
9.4	134960.133
9.405	134613.4829
9.41	134267.8078
9.415	133923.1048
9.42	133579.3708
9.425	133236.603
9.43	132894.7984
9.435	132553.9541
9.44	132214.0672
9.445	131875.1348
9.45	131537.154
9.455	131200.1219
9.46	130864.0356
9.465	130528.8923
9.47	130194.6891
9.475	129861.4233
9.48	129529.0918
9.485	129197.6919
9.49	128867.2209
9.495	128537.6758
9.5	128209.0539
9.505	127881.3524
9.51	127554.5685
9.515	127228.6994
9.52	126903.7424
9.525	126579.6947
9.53	126256.5536
9.535	125934.3163
9.54	125612.9801
9.545	125292.5423
9.55	124973.0001
9.555	124654.3509
9.56	124336.592
9.565	124019.7207
9.57	123703.7343
9.575	123388.6301
9.58	123074.4055
9.585	122761.0578
9.59	122448.5845
9.595	122136.9827
9.6	121826.25
9.605	121516.3838
9.61	121207.3813
9.615	120899.24
9.62	120591.9574
9.625	120285.5307
9.63	119979.9576
9.635	119675.2353
9.64	119371.3613
9.645	119068.3332
9.65	118766.1482
9.655	118464.804
9.66	118164.2979
9.665	117864.6275
9.67	117565.7903
9.675	117267.7837
9.68	116970.6052
9.685	116674.2525
9.69	116378.7229
9.695	116084.014
9.7	115790.1234
9.705	115497.0486
9.71	115204.7872
9.715	114913.3367
9.72	114622.6946
9.725	114332.8587
9.73	114043.8264
9.735	113755.5953
9.74	113468.1631
9.745	113181.5274
9.75	112895.6857
9.755	112610.6357
9.76	112326.3751
9.765	112042.9014
9.77	111760.2123
9.775	111478.3055
9.78	111197.1787
9.785	110916.8294
9.79	110637.2554
9.795	110358.4543
9.8	110080.4239
9.805	109803.1619
9.81	109526.6658
9.815	109250.9336
9.82	108975.9628
9.825	108701.7513
9.83	108428.2967
9.835	108155.5968
9.84	107883.6493
9.845	107612.4521
9.85	107342.0028
9.855	107072.2992
9.86	106803.3391
9.865	106535.1203
9.87	106267.6406
9.875	106000.8978
9.88	105734.8897
9.885	105469.6141
9.89	105205.0688
9.895	104941.2517
9.9	104678.1605
9.905	104415.7932
9.91	104154.1475
9.915	103893.2214
9.92	103633.0126
9.925	103373.5192
9.93	103114.7388
9.935	102856.6695
9.94	102599.309
9.945	102342.6554
9.95	102086.7065
9.955	101831.4601
9.96	101576.9143
9.965	101323.0669
9.97	101069.9159
9.975	100817.4592
9.98	100565.6948
9.985	100314.6205
9.99	100064.2344
9.995	99814.53446
10	99565.51855
10.005	99317.18469
10.01	99069.53087
10.015	98822.55506
10.02	98576.25527
10.025	98330.62948
10.03	98085.67572
10.035	97841.39198
10.04	97597.77629
10.045	97354.82667
10.05	97112.54115
10.055	96870.91777
10.06	96629.95458
10.065	96389.64961
10.07	96150.00094
10.075	95911.00661
10.08	95672.6647
10.085	95434.97328
10.09	95197.93043
10.095	94961.53424
10.1	94725.78279
10.105	94490.6742
10.11	94256.20655
10.115	94022.37797
10.12	93789.18656
10.125	93556.63045
10.13	93324.70777
10.135	93093.41665
10.14	92862.75523
10.145	92632.72166
10.15	92403.31409
10.155	92174.53067
10.16	91946.36956
10.165	91718.82895
10.17	91491.907
10.175	91265.60188
10.18	91039.9118
10.185	90814.83493
10.19	90590.36949
10.195	90366.51366
10.2	90143.26566
10.205	89920.62371
10.21	89698.58601
10.215	89477.15081
10.22	89256.31633
10.225	89036.0808
10.23	88816.44247
10.235	88597.39959
10.24	88378.95041
10.245	88161.09319
10.25	87943.82619
10.255	87727.14769
10.26	87511.05595
10.265	87295.54926
10.27	87080.62591
10.275	86866.28418
10.28	86652.52237
10.285	86439.33879
10.29	86226.73174
10.295	86014.69953
10.3	85803.24049
10.305	85592.35293
10.31	85382.03518
10.315	85172.28559
10.32	84963.10247
10.325	84754.48419
10.33	84546.42909
10.335	84338.93552
10.34	84132.00185
10.345	83925.62643
10.35	83719.80765
10.355	83514.54386
10.36	83309.83346
10.365	83105.67482
10.37	82902.06635
10.375	82699.00642
10.38	82496.49345
10.385	82294.52584
10.39	82093.102
10.395	81892.22033
10.4	81691.87928
10.405	81492.07725
10.41	81292.81268
10.415	81094.084
10.42	80895.88965
10.425	80698.22808
10.43	80501.09774
10.435	80304.49708
10.44	80108.42456
10.445	79912.87864
10.45	79717.85779
10.455	79523.36048
10.46	79329.3852
10.465	79135.93043
10.47	78942.99465
10.475	78750.57635
10.48	78558.67404
10.485	78367.28621
10.49	78176.41137
10.495	77986.04804
10.5	77796.19471
10.505	77606.84993
10.51	77418.01221
10.515	77229.68008
10.52	77041.85207
10.525	76854.52673
10.53	76667.7026
10.535	76481.37821
10.54	76295.55214
10.545	76110.22292
10.55	75925.38913
10.555	75741.04933
10.56	75557.20209
10.565	75373.84598
10.57	75190.97958
10.575	75008.60148
10.58	74826.71026
10.585	74645.30451
10.59	74464.38284
10.595	74283.94383
10.6	74103.9861
10.605	73924.50826
10.61	73745.50892
10.615	73566.98669
10.62	73388.94021
10.625	73211.36808
10.63	73034.26896
10.635	72857.64147
10.64	72681.48424
10.645	72505.79593
10.65	72330.57518
10.655	72155.82065
10.66	71981.53098
10.665	71807.70484
10.67	71634.34089
10.675	71461.43781
10.68	71288.99425
10.685	71117.00891
10.69	70945.48046
10.695	70774.40758
10.7	70603.78897
10.705	70433.62331
10.71	70263.90931
10.715	70094.64566
10.72	69925.83107
10.725	69757.46425
10.73	69589.5439
10.735	69422.06876
10.74	69255.03753
10.745	69088.44894
10.75	68922.30173
10.755	68756.59462
10.76	68591.32635
10.765	68426.49565
10.77	68262.10129
10.775	68098.14199
10.78	67934.61652
10.785	67771.52362
10.79	67608.86207
10.795	67446.63062
10.8	67284.82804
10.805	67123.45309
10.81	66962.50457
10.815	66801.98123
10.82	66641.88187
10.825	66482.20528
10.83	66322.95023
10.835	66164.11553
10.84	66005.69997
10.845	65847.70235
10.85	65690.12148
10.855	65532.95616
10.86	65376.20521
10.865	65219.86744
10.87	65063.94167
10.875	64908.42672
10.88	64753.32143
10.885	64598.62461
10.89	64444.33511
10.895	64290.45175
10.9	64136.97339
10.905	63983.89886
10.91	63831.22701
10.915	63678.9567
10.92	63527.08677
10.925	63375.61609
10.93	63224.54352
10.935	63073.86792
10.94	62923.58816
10.945	62773.70312
10.95	62624.21166
10.955	62475.11267
10.96	62326.40504
10.965	62178.08764
10.97	62030.15936
10.975	61882.6191
10.98	61735.46576
10.985	61588.69822
10.99	61442.31541
10.995	61296.31621
11	61150.69955
11.005	61005.46433
11.01	60860.60947
11.015	60716.13389
11.02	60572.03651
11.025	60428.31626
11.03	60284.97207
11.035	60142.00286
11.04	59999.40758
11.045	59857.18516
11.05	59715.33455
11.055	59573.85469
11.06	59432.74453
11.065	59292.00302
11.07	59151.62911
11.075	59011.62177
11.08	58871.97996
11.085	58732.70263
11.09	58593.78877
11.095	58455.23733
11.1	58317.04729
11.105	58179.21764
11.11	58041.74734
11.115	57904.63538
11.12	57767.88076
11.125	57631.48245
11.13	57495.43945
11.135	57359.75076
11.14	57224.41537
11.145	57089.43228
11.15	56954.80051
11.155	56820.51906
11.16	56686.58693
11.165	56553.00315
11.17	56419.76672
11.175	56286.87667
11.18	56154.33202
11.185	56022.1318
11.19	55890.27503
11.195	55758.76075
11.2	55627.58799
11.205	55496.75579
11.21	55366.26318
11.215	55236.10921
11.22	55106.29293
11.225	54976.81339
11.23	54847.66963
11.235	54718.86071
11.24	54590.3857
11.245	54462.24364
11.25	54334.4336
11.255	54206.95465
11.26	54079.80586
11.265	53952.98629
11.27	53826.49503
11.275	53700.33115
11.28	53574.49373
11.285	53448.98185
11.29	53323.79459
11.295	53198.93106
11.3	53074.39033
11.305	52950.1715
11.31	52826.27366
11.315	52702.69593
11.32	52579.43739
11.325	52456.49715
11.33	52333.87433
11.335	52211.56802
11.34	52089.57735
11.345	51967.90142
11.35	51846.53936
11.355	51725.49029
11.36	51604.75333
11.365	51484.3276
11.37	51364.21223
11.375	51244.40636
11.38	51124.90912
11.385	51005.71964
11.39	50886.83707
11.395	50768.26055
11.4	50649.98921
11.405	50532.02221
11.41	50414.3587
11.415	50296.99782
11.42	50179.93873
11.425	50063.1806
11.43	49946.72257
11.435	49830.56381
11.44	49714.70349
11.445	49599.14076
11.45	49483.87481
11.455	49368.9048
11.46	49254.22991
11.465	49139.84931
11.47	49025.76219
11.475	48911.96772
11.48	48798.46509
11.485	48685.25348
11.49	48572.3321
11.495	48459.70011
11.5	48347.35673
11.505	48235.30115
11.51	48123.53256
11.515	48012.05017
11.52	47900.85317
11.525	47789.94079
11.53	47679.31222
11.535	47568.96667
11.54	47458.90337
11.545	47349.12152
11.55	47239.62034
11.555	47130.39905
11.56	47021.45687
11.565	46912.79303
11.57	46804.40676
11.575	46696.29729
11.58	46588.46384
11.585	46480.90565
11.59	46373.62196
11.595	46266.612
11.6	46159.87502
11.605	46053.41026
11.61	45947.21696
11.615	45841.29438
11.62	45735.64175
11.625	45630.25834
11.63	45525.1434
11.635	45420.29618
11.64	45315.71594
11.645	45211.40195
11.65	45107.35347
11.655	45003.56975
11.66	44900.05008
11.665	44796.79371
11.67	44693.79992
11.675	44591.06799
11.68	44488.59719
11.685	44386.3868
11.69	44284.4361
11.695	44182.74437
11.7	44081.31089
11.705	43980.13496
11.71	43879.21586
11.715	43778.55288
11.72	43678.14532
11.725	43577.99247
11.73	43478.09363
11.735	43378.44809
11.74	43279.05517
11.745	43179.91416
11.75	43081.02436
11.755	42982.3851
11.76	42883.99566
11.765	42785.85538
11.77	42687.96355
11.775	42590.31951
11.78	42492.92255
11.785	42395.77201
11.79	42298.86721
11.795	42202.20747
11.8	42105.79211
11.805	42009.62047
11.81	41913.69187
11.815	41818.00565
11.82	41722.56113
11.825	41627.35767
11.83	41532.39458
11.835	41437.67121
11.84	41343.18691
11.845	41248.94102
11.85	41154.93288
11.855	41061.16184
11.86	40967.62725
11.865	40874.32846
11.87	40781.26482
11.875	40688.4357
11.88	40595.84044
11.885	40503.4784
11.89	40411.34895
11.895	40319.45145
11.9	40227.78526
11.905	40136.34975
11.91	40045.14429
11.915	39954.16825
11.92	39863.421
11.925	39772.9019
11.93	39682.61035
11.935	39592.54572
11.94	39502.70738
11.945	39413.09472
11.95	39323.70712
11.955	39234.54396
11.96	39145.60464
11.965	39056.88853
11.97	38968.39504
11.975	38880.12355
11.98	38792.07345
11.985	38704.24415
11.99	38616.63503
11.995	38529.2455
12	38442.07496
12.005	38355.12282
12.01	38268.38846
12.015	38181.87131
12.02	38095.57077
12.025	38009.48625
12.03	37923.61716
12.035	37837.96291
12.04	37752.52292
12.045	37667.29661
12.05	37582.28339
12.055	37497.48268
12.06	37412.89391
12.065	37328.51649
12.07	37244.34986
12.075	37160.39343
12.08	37076.64665
12.085	36993.10893
12.09	36909.77971
12.095	36826.65842
12.1	36743.74451
12.105	36661.03739
12.11	36578.53652
12.115	36496.24133
12.12	36414.15127
12.125	36332.26577
12.13	36250.58428
12.135	36169.10626
12.14	36087.83114
12.145	36006.75837
12.15	35925.88742
12.155	35845.21772
12.16	35764.74874
12.165	35684.47993
12.17	35604.41075
12.175	35524.54065
12.18	35444.86911
12.185	35365.39557
12.19	35286.11951
12.195	35207.04039
12.2	35128.15768
12.205	35049.47085
12.21	34970.97936
12.215	34892.68268
12.22	34814.5803
12.225	34736.67169
12.23	34658.95631
12.235	34581.43366
12.24	34504.1032
12.245	34426.96443
12.25	34350.01682
12.255	34273.25985
12.26	34196.69302
12.265	34120.3158
12.27	34044.12769
12.275	33968.12818
12.28	33892.31675
12.285	33816.69291
12.29	33741.25614
12.295	33666.00594
12.3	33590.94181
12.305	33516.06324
12.31	33441.36974
12.315	33366.86081
12.32	33292.53595
12.325	33218.39467
12.33	33144.43646
12.335	33070.66085
12.34	32997.06733
12.345	32923.65542
12.35	32850.42463
12.355	32777.37447
12.36	32704.50446
12.365	32631.81411
12.37	32559.30293
12.375	32486.97046
12.38	32414.8162
12.385	32342.83969
12.39	32271.04043
12.395	32199.41796
12.4	32127.9718
12.405	32056.70148
12.41	31985.60653
12.415	31914.68647
12.42	31843.94084
12.425	31773.36917
12.43	31702.971
12.435	31632.74585
12.44	31562.69326
12.445	31492.81278
12.45	31423.10394
12.455	31353.56628
12.46	31284.19935
12.465	31215.00268
12.47	31145.97582
12.475	31077.11831
12.48	31008.42971
12.485	30939.90956
12.49	30871.55741
12.495	30803.37282
12.5	30735.35532
12.505	30667.50449
12.51	30599.81986
12.515	30532.30101
12.52	30464.94747
12.525	30397.75883
12.53	30330.73462
12.535	30263.87442
12.54	30197.17779
12.545	30130.64429
12.55	30064.27348
12.555	29998.06493
12.56	29932.01821
12.565	29866.13289
12.57	29800.40854
12.575	29734.84473
12.58	29669.44102
12.585	29604.197
12.59	29539.11224
12.595	29474.18631
12.6	29409.41879
12.605	29344.80926
12.61	29280.35731
12.615	29216.0625
12.62	29151.92443
12.625	29087.94267
12.63	29024.11681
12.635	28960.44643
12.64	28896.93113
12.645	28833.57049
12.65	28770.3641
12.655	28707.31155
12.66	28644.41243
12.665	28581.66633
12.67	28519.07285
12.675	28456.63158
12.68	28394.34213
12.685	28332.20407
12.69	28270.21702
12.695	28208.38058
12.7	28146.69434
12.705	28085.15791
12.71	28023.77088
12.715	27962.53287
12.72	27901.44348
12.725	27840.50231
12.73	27779.70898
12.735	27719.06309
12.74	27658.56424
12.745	27598.21207
12.75	27538.00616
12.755	27477.94614
12.76	27418.03162
12.765	27358.26222
12.77	27298.63755
12.775	27239.15723
12.78	27179.82088
12.785	27120.62812
12.79	27061.57857
12.795	27002.67185
12.8	26943.90758
12.805	26885.28539
12.81	26826.8049
12.815	26768.46574
12.82	26710.26754
12.825	26652.20992
12.83	26594.29251
12.835	26536.51495
12.84	26478.87686
12.845	26421.37788
12.85	26364.01764
12.855	26306.79578
12.86	26249.71193
12.865	26192.76572
12.87	26135.9568
12.875	26079.2848
12.88	26022.74937
12.885	25966.35014
12.89	25910.08676
12.895	25853.95886
12.9	25797.9661
12.905	25742.10811
12.91	25686.38455
12.915	25630.79506
12.92	25575.33928
12.925	25520.01687
12.93	25464.82747
12.935	25409.77074
12.94	25354.84633
12.945	25300.05389
12.95	25245.39307
12.955	25190.86354
12.96	25136.46493
12.965	25082.19692
12.97	25028.05916
12.975	24974.0513
12.98	24920.17302
12.985	24866.42395
12.99	24812.80378
12.995	24759.31216
13	24705.94875
13.005	24652.71322
13.01	24599.60524
13.015	24546.62447
13.02	24493.77057
13.025	24441.04322
13.03	24388.44208
13.035	24335.96683
13.04	24283.61713
13.045	24231.39266
13.05	24179.29309
13.055	24127.3181
13.06	24075.46735
13.065	24023.74052
13.07	23972.1373
13.075	23920.65735
13.08	23869.30036
13.085	23818.066
13.09	23766.95395
13.095	23715.9639
13.1	23665.09553
13.105	23614.34852
13.11	23563.72255
13.115	23513.21731
13.12	23462.83248
13.125	23412.56776
13.13	23362.42282
13.135	23312.39735
13.14	23262.49105
13.145	23212.7036
13.15	23163.03469
13.155	23113.48403
13.16	23064.05128
13.165	23014.73617
13.17	22965.53836
13.175	22916.45757
13.18	22867.49348
13.185	22818.64579
13.19	22769.91421
13.195	22721.29842
13.2	22672.79814
13.205	22624.41305
13.21	22576.14285
13.215	22527.98726
13.22	22479.94598
13.225	22432.01869
13.23	22384.20512
13.235	22336.50497
13.24	22288.91794
13.245	22241.44373
13.25	22194.08206
13.255	22146.83264
13.26	22099.69517
13.265	22052.66936
13.27	22005.75493
13.275	21958.95158
13.28	21912.25903
13.285	21865.677
13.29	21819.20518
13.295	21772.84331
13.3	21726.59109
13.305	21680.44825
13.31	21634.4145
13.315	21588.48955
13.32	21542.67313
13.325	21496.96495
13.33	21451.36474
13.335	21405.87222
13.34	21360.4871
13.345	21315.20912
13.35	21270.03799
13.355	21224.97344
13.36	21180.0152
13.365	21135.16299
13.37	21090.41653
13.375	21045.77555
13.38	21001.23979
13.385	20956.80897
13.39	20912.48282
13.395	20868.26106
13.4	20824.14344
13.405	20780.12969
13.41	20736.21952
13.415	20692.41269
13.42	20648.70892
13.425	20605.10795
13.43	20561.60951
13.435	20518.21333
13.44	20474.91917
13.445	20431.72675
13.45	20388.63581
13.455	20345.64609
13.46	20302.75734
13.465	20259.96928
13.47	20217.28167
13.475	20174.69425
13.48	20132.20675
13.485	20089.81892
13.49	20047.53051
13.495	20005.34126
13.5	19963.25092
13.505	19921.25922
13.51	19879.36593
13.515	19837.57078
13.52	19795.87353
13.525	19754.27393
13.53	19712.77171
13.535	19671.36664
13.54	19630.05847
13.545	19588.84695
13.55	19547.73182
13.555	19506.71285
13.56	19465.78978
13.565	19424.96238
13.57	19384.23039
13.575	19343.59358
13.58	19303.0517
13.585	19262.6045
13.59	19222.25175
13.595	19181.9932
13.6	19141.82861
13.605	19101.75775
13.61	19061.78037
13.615	19021.89623
13.62	18982.1051
13.625	18942.40674
13.63	18902.80091
13.635	18863.28737
13.64	18823.8659
13.645	18784.53625
13.65	18745.2982
13.655	18706.1515
13.66	18667.09593
13.665	18628.13125
13.67	18589.25723
13.675	18550.47364
13.68	18511.78025
13.685	18473.17683
13.69	18434.66315
13.695	18396.23899
13.7	18357.90411
13.705	18319.65829
13.71	18281.5013
13.715	18243.43291
13.72	18205.45291
13.725	18167.56106
13.73	18129.75714
13.735	18092.04093
13.74	18054.4122
13.745	18016.87074
13.75	17979.41631
13.755	17942.04871
13.76	17904.76771
13.765	17867.57308
13.77	17830.46462
13.775	17793.4421
13.78	17756.5053
13.785	17719.65401
13.79	17682.88801
13.795	17646.20708
13.8	17609.61101
13.805	17573.09959
13.81	17536.67259
13.815	17500.3298
13.82	17464.07102
13.825	17427.89603
13.83	17391.80461
13.835	17355.79656
13.84	17319.87166
13.845	17284.0297
13.85	17248.27048
13.855	17212.59378
13.86	17176.9994
13.865	17141.48713
13.87	17106.05676
13.875	17070.70808
13.88	17035.44088
13.885	17000.25497
13.89	16965.15014
13.895	16930.12617
13.9	16895.18287
13.905	16860.32004
13.91	16825.53746
13.915	16790.83495
13.92	16756.21229
13.925	16721.66928
13.93	16687.20573
13.935	16652.82143
13.94	16618.51619
13.945	16584.2898
13.95	16550.14206
13.955	16516.07279
13.96	16482.08177
13.965	16448.16882
13.97	16414.33373
13.975	16380.57632
13.98	16346.89638
13.985	16313.29372
13.99	16279.76815
13.995	16246.31947
14	16212.94748
14.005	16179.65201
14.01	16146.43285
14.015	16113.28981
14.02	16080.2227
14.025	16047.23133
14.03	16014.31551
14.035	15981.47505
14.04	15948.70977
14.045	15916.01946
14.05	15883.40395
14.055	15850.86305
14.06	15818.39657
14.065	15786.00432
14.07	15753.68611
14.075	15721.44177
14.08	15689.27111
14.085	15657.17394
14.09	15625.15007
14.095	15593.19933
14.1	15561.32153
14.105	15529.51649
14.11	15497.78402
14.115	15466.12395
14.12	15434.5361
14.125	15403.02027
14.13	15371.5763
14.135	15340.204
14.14	15308.9032
14.145	15277.67371
14.15	15246.51536
14.155	15215.42797
14.16	15184.41136
14.165	15153.46536
14.17	15122.58979
14.175	15091.78447
14.18	15061.04922
14.185	15030.38388
14.19	14999.78827
14.195	14969.26222
14.2	14938.80554
14.205	14908.41808
14.21	14878.09965
14.215	14847.85008
14.22	14817.66921
14.225	14787.55686
14.23	14757.51286
14.235	14727.53704
14.24	14697.62923
14.245	14667.78926
14.25	14638.01696
14.255	14608.31217
14.26	14578.67472
14.265	14549.10443
14.27	14519.60115
14.275	14490.1647
14.28	14460.79492
14.285	14431.49164
14.29	14402.2547
14.295	14373.08394
14.3	14343.97918
14.305	14314.94027
14.31	14285.96704
14.315	14257.05933
14.32	14228.21698
14.325	14199.43982
14.33	14170.72769
14.335	14142.08043
14.34	14113.49788
14.345	14084.97989
14.35	14056.52628
14.355	14028.1369
14.36	13999.8116
14.365	13971.5502
14.37	13943.35256
14.375	13915.21852
14.38	13887.14791
14.385	13859.14059
14.39	13831.19639
14.395	13803.31517
14.4	13775.49675
14.405	13747.74099
14.41	13720.04774
14.415	13692.41683
14.42	13664.84812
14.425	13637.34145
14.43	13609.89667
14.435	13582.51362
14.44	13555.19216
14.445	13527.93212
14.45	13500.73337
14.455	13473.59574
14.46	13446.51908
14.465	13419.50326
14.47	13392.54811
14.475	13365.65348
14.48	13338.81924
14.485	13312.04522
14.49	13285.33128
14.495	13258.67727
14.5	13232.08305
14.505	13205.54846
14.51	13179.07337
14.515	13152.65762
14.52	13126.30107
14.525	13100.00356
14.53	13073.76497
14.535	13047.58514
14.54	13021.46392
14.545	12995.40118
14.55	12969.39677
14.555	12943.45054
14.56	12917.56236
14.565	12891.73207
14.57	12865.95955
14.575	12840.24464
14.58	12814.58721
14.585	12788.98711
14.59	12763.4442
14.595	12737.95835
14.6	12712.52941
14.605	12687.15724
14.61	12661.84171
14.615	12636.58267
14.62	12611.37999
14.625	12586.23353
14.63	12561.14314
14.635	12536.10871
14.64	12511.13007
14.645	12486.20711
14.65	12461.33968
14.655	12436.52765
14.66	12411.77088
14.665	12387.06924
14.67	12362.42259
14.675	12337.83079
14.68	12313.29372
14.685	12288.81124
14.69	12264.38321
14.695	12240.00951
14.7	12215.69
14.705	12191.42454
14.71	12167.21301
14.715	12143.05528
14.72	12118.9512
14.725	12094.90066
14.73	12070.90352
14.735	12046.95965
14.74	12023.06893
14.745	11999.23121
14.75	11975.44637
14.755	11951.71429
14.76	11928.03483
14.765	11904.40787
14.77	11880.83328
14.775	11857.31093
14.78	11833.84069
14.785	11810.42243
14.79	11787.05604
14.795	11763.74138
14.8	11740.47833
14.805	11717.26676
14.81	11694.10655
14.815	11670.99757
14.82	11647.9397
14.825	11624.93281
14.83	11601.97678
14.835	11579.07149
14.84	11556.21681
14.845	11533.41261
14.85	11510.65879
14.855	11487.95521
14.86	11465.30175
14.865	11442.6983
14.87	11420.14472
14.875	11397.64091
14.88	11375.18673
14.885	11352.78207
14.89	11330.4268
14.895	11308.12082
14.9	11285.86399
14.905	11263.6562
14.91	11241.49733
14.915	11219.38727
14.92	11197.32589
14.925	11175.31307
14.93	11153.3487
14.935	11131.43267
14.94	11109.56485
14.945	11087.74512
14.95	11065.97338
14.955	11044.2495
14.96	11022.57337
14.965	11000.94488
14.97	10979.3639
14.975	10957.83033
14.98	10936.34405
14.985	10914.90494
14.99	10893.5129
14.995	10872.1678
15	10850.86954
15.005	10829.61799
15.01	10808.41306
15.015	10787.25462
15.02	10766.14257
15.025	10745.07679
15.03	10724.05717
15.035	10703.0836
15.04	10682.15597
15.045	10661.27417
15.05	10640.43808
15.055	10619.6476
15.06	10598.90262
15.065	10578.20303
15.07	10557.54871
15.075	10536.93957
15.08	10516.37548
15.085	10495.85635
15.09	10475.38207
15.095	10454.95252
15.1	10434.5676
15.105	10414.2272
15.11	10393.93121
15.115	10373.67954
15.12	10353.47206
15.125	10333.30868
15.13	10313.18929
15.135	10293.11379
15.14	10273.08206
15.145	10253.09401
15.15	10233.14953
15.155	10213.24851
15.16	10193.39085
15.165	10173.57645
15.17	10153.8052
15.175	10134.077
15.18	10114.39174
15.185	10094.74933
15.19	10075.14966
15.195	10055.59262
15.2	10036.07813
15.205	10016.60606
15.21	9997.176332
15.215	9977.788832
15.22	9958.443463
15.225	9939.140123
15.23	9919.878712
15.235	9900.65913
15.24	9881.481276
15.245	9862.345052
15.25	9843.250357
15.255	9824.197092
15.26	9805.185159
15.265	9786.214458
15.27	9767.284892
15.275	9748.396362
15.28	9729.548769
15.285	9710.742017
15.29	9691.976008
15.295	9673.250645
15.3	9654.56583
15.305	9635.921468
15.31	9617.317462
15.315	9598.753715
15.32	9580.230131
15.325	9561.746616
15.33	9543.303073
15.335	9524.899408
15.34	9506.535524
15.345	9488.211329
15.35	9469.926727
15.355	9451.681624
15.36	9433.475926
15.365	9415.309539
15.37	9397.18237
15.375	9379.094326
15.38	9361.045313
15.385	9343.03524
15.39	9325.064012
15.395	9307.131539
15.4	9289.237728
15.405	9271.382487
15.41	9253.565724
15.415	9235.787349
15.42	9218.047271
15.425	9200.345397
15.43	9182.681638
15.435	9165.055904
15.44	9147.468104
15.445	9129.918148
15.45	9112.405946
15.455	9094.93141
15.46	9077.494449
15.465	9060.094976
15.47	9042.7329
15.475	9025.408134
15.48	9008.120589
15.485	8990.870177
15.49	8973.65681
15.495	8956.480401
15.5	8939.340862
15.505	8922.238105
15.51	8905.172045
15.515	8888.142594
15.52	8871.149666
15.525	8854.193174
15.53	8837.273032
15.535	8820.389154
15.54	8803.541456
15.545	8786.72985
15.55	8769.954253
15.555	8753.214579
15.56	8736.510744
15.565	8719.842662
15.57	8703.21025
15.575	8686.613423
15.58	8670.052097
15.585	8653.52619
15.59	8637.035616
15.595	8620.580294
15.6	8604.16014
15.605	8587.775071
15.61	8571.425004
15.615	8555.109858
15.62	8538.829549
15.625	8522.583996
15.63	8506.373118
15.635	8490.196832
15.64	8474.055057
15.645	8457.947712
15.65	8441.874717
15.655	8425.835989
15.66	8409.83145
15.665	8393.861018
15.67	8377.924613
15.675	8362.022156
15.68	8346.153566
15.685	8330.318765
15.69	8314.517673
15.695	8298.75021
15.7	8283.016298
15.705	8267.315858
15.71	8251.648812
15.715	8236.015081
15.72	8220.414588
15.725	8204.847254
15.73	8189.313001
15.735	8173.811752
15.74	8158.343431
15.745	8142.907958
15.75	8127.505259
15.755	8112.135256
15.76	8096.797872
15.765	8081.493031
15.77	8066.220657
15.775	8050.980674
15.78	8035.773006
15.785	8020.597578
15.79	8005.454315
15.795	7990.34314
15.8	7975.26398
15.805	7960.216759
15.81	7945.201403
15.815	7930.217837
15.82	7915.265987
15.825	7900.345779
15.83	7885.45714
15.835	7870.599994
15.84	7855.77427
15.845	7840.979894
15.85	7826.216792
15.855	7811.484892
15.86	7796.784121
15.865	7782.114406
15.87	7767.475676
15.875	7752.867857
15.88	7738.290878
15.885	7723.744667
15.89	7709.229152
15.895	7694.744262
15.9	7680.289926
15.905	7665.866072
15.91	7651.47263
15.915	7637.109529
15.92	7622.776698
15.925	7608.474067
15.93	7594.201565
15.935	7579.959123
15.94	7565.746672
15.945	7551.56414
15.95	7537.411458
15.955	7523.288559
15.96	7509.195371
15.965	7495.131826
15.97	7481.097856
15.975	7467.093391
15.98	7453.118364
15.985	7439.172706
15.99	7425.256349
15.995	7411.369224
16	7397.511265
16.005	7383.682404
16.01	7369.882572
16.015	7356.111704
16.02	7342.369731
16.025	7328.656587
16.03	7314.972205
16.035	7301.316519
16.04	7287.689462
16.045	7274.090968
16.05	7260.520971
16.055	7246.979405
16.06	7233.466203
16.065	7219.981302
16.07	7206.524634
16.075	7193.096136
16.08	7179.695741
16.085	7166.323385
16.09	7152.979003
16.095	7139.662531
16.1	7126.373904
16.105	7113.113057
16.11	7099.879927
16.115	7086.67445
16.12	7073.496562
16.125	7060.346199
16.13	7047.223298
16.135	7034.127796
16.14	7021.059629
16.145	7008.018734
16.15	6995.005048
16.155	6982.01851
16.16	6969.059055
16.165	6956.126623
16.17	6943.22115
16.175	6930.342575
16.18	6917.490836
16.185	6904.665871
16.19	6891.867618
16.195	6879.096016
16.2	6866.351003
16.205	6853.632519
16.21	6840.940503
16.215	6828.274893
16.22	6815.63563
16.225	6803.022652
16.23	6790.435899
16.235	6777.875311
16.24	6765.340828
16.245	6752.83239
16.25	6740.349937
16.255	6727.893409
16.26	6715.462748
16.265	6703.057893
16.27	6690.678786
16.275	6678.325367
16.28	6665.997578
16.285	6653.69536
16.29	6641.418654
16.295	6629.167402
16.3	6616.941546
16.305	6604.741027
16.31	6592.565787
16.315	6580.415769
16.32	6568.290915
16.325	6556.191167
16.33	6544.116468
16.335	6532.06676
16.34	6520.041986
16.345	6508.04209
16.35	6496.067015
16.355	6484.116703
16.36	6472.191099
16.365	6460.290145
16.37	6448.413786
16.375	6436.561965
16.38	6424.734626
16.385	6412.931713
16.39	6401.153172
16.395	6389.398945
16.4	6377.668978
16.405	6365.963215
16.41	6354.281601
16.415	6342.624081
16.42	6330.9906
16.425	6319.381104
16.43	6307.795537
16.435	6296.233845
16.44	6284.695974
16.445	6273.18187
16.45	6261.691478
16.455	6250.224744
16.46	6238.781615
16.465	6227.362037
16.47	6215.965956
16.475	6204.593319
16.48	6193.244073
16.485	6181.918164
16.49	6170.615539
16.495	6159.336146
16.5	6148.079932
16.505	6136.846843
16.51	6125.636828
16.515	6114.449834
16.52	6103.285809
16.525	6092.1447
16.53	6081.026456
16.535	6069.931025
16.54	6058.858355
16.545	6047.808395
16.55	6036.781092
16.555	6025.776396
16.56	6014.794255
16.565	6003.834619
16.57	5992.897436
16.575	5981.982655
16.58	5971.090226
16.585	5960.220097
16.59	5949.37222
16.595	5938.546542
16.6	5927.743015
16.605	5916.961587
16.61	5906.202209
16.615	5895.464831
16.62	5884.749404
16.625	5874.055877
16.63	5863.384201
16.635	5852.734326
16.64	5842.106205
16.645	5831.499786
16.65	5820.915022
16.655	5810.351863
16.66	5799.810261
16.665	5789.290167
16.67	5778.791533
16.675	5768.314309
16.68	5757.858448
16.685	5747.423902
16.69	5737.010622
16.695	5726.618561
16.7	5716.24767
16.705	5705.897903
16.71	5695.569211
16.715	5685.261547
16.72	5674.974864
16.725	5664.709114
16.73	5654.46425
16.735	5644.240226
16.74	5634.036993
16.745	5623.854507
16.75	5613.692719
16.755	5603.551584
16.76	5593.431054
16.765	5583.331085
16.77	5573.251628
16.775	5563.192639
16.78	5553.154071
16.785	5543.135879
16.79	5533.138016
16.795	5523.160438
16.8	5513.203097
16.805	5503.26595
16.81	5493.348951
16.815	5483.452054
16.82	5473.575215
16.825	5463.718388
16.83	5453.881529
16.835	5444.064593
16.84	5434.267535
16.845	5424.49031
16.85	5414.732875
16.855	5404.995184
16.86	5395.277195
16.865	5385.578862
16.87	5375.900141
16.875	5366.240989
16.88	5356.601362
16.885	5346.981217
16.89	5337.380508
16.895	5327.799194
16.9	5318.237231
16.905	5308.694576
16.91	5299.171184
16.915	5289.667014
16.92	5280.182023
16.925	5270.716167
16.93	5261.269404
16.935	5251.841691
16.94	5242.432985
16.945	5233.043245
16.95	5223.672428
16.955	5214.320492
16.96	5204.987394
16.965	5195.673093
16.97	5186.377546
16.975	5177.100712
16.98	5167.84255
16.985	5158.603017
16.99	5149.382072
16.995	5140.179674
17	5130.995781
17.005	5121.830352
17.01	5112.683346
17.015	5103.554722
17.02	5094.44444
17.025	5085.352458
17.03	5076.278735
17.035	5067.223231
17.04	5058.185906
17.045	5049.166719
17.05	5040.16563
17.055	5031.182598
17.06	5022.217584
17.065	5013.270548
17.07	5004.341448
17.075	4995.430247
17.08	4986.536903
17.085	4977.661378
17.09	4968.803632
17.095	4959.963624
17.1	4951.141317
17.105	4942.336671
17.11	4933.549646
17.115	4924.780204
17.12	4916.028305
17.125	4907.293911
17.13	4898.576983
17.135	4889.877482
17.14	4881.19537
17.145	4872.530608
17.15	4863.883157
17.155	4855.25298
17.16	4846.640039
17.165	4838.044294
17.17	4829.465708
17.175	4820.904243
17.18	4812.359862
17.185	4803.832526
17.19	4795.322198
17.195	4786.82884
17.2	4778.352414
17.205	4769.892884
17.21	4761.450212
17.215	4753.024361
17.22	4744.615293
17.225	4736.222972
17.23	4727.847361
17.235	4719.488422
17.24	4711.14612
17.245	4702.820416
17.25	4694.511276
17.255	4686.218662
17.26	4677.942537
17.265	4669.682866
17.27	4661.439612
17.275	4653.212739
17.28	4645.002212
17.285	4636.807993
17.29	4628.630047
17.295	4620.468339
17.3	4612.322832
17.305	4604.193491
17.31	4596.08028
17.315	4587.983164
17.32	4579.902108
17.325	4571.837076
17.33	4563.788032
17.335	4555.754943
17.34	4547.737772
17.345	4539.736486
17.35	4531.751048
17.355	4523.781424
17.36	4515.82758
17.365	4507.88948
17.37	4499.967091
17.375	4492.060378
17.38	4484.169306
17.385	4476.293841
17.39	4468.433949
17.395	4460.589595
17.4	4452.760747
17.405	4444.947369
17.41	4437.149428
17.415	4429.366889
17.42	4421.59972
17.425	4413.847887
17.43	4406.111356
17.435	4398.390093
17.44	4390.684066
17.445	4382.99324
17.45	4375.317583
17.455	4367.657061
17.46	4360.011642
17.465	4352.381292
17.47	4344.765978
17.475	4337.165668
17.48	4329.580329
17.485	4322.009927
17.49	4314.454431
17.495	4306.913808
17.5	4299.388025
17.505	4291.87705
17.51	4284.380851
17.515	4276.899395
17.52	4269.432651
17.525	4261.980586
17.53	4254.543168
17.535	4247.120365
17.54	4239.712146
17.545	4232.318478
17.55	4224.939331
17.555	4217.574671
17.56	4210.224469
17.565	4202.888692
17.57	4195.567308
17.575	4188.260288
17.58	4180.967598
17.585	4173.689209
17.59	4166.425089
17.595	4159.175206
17.6	4151.939531
17.605	4144.718032
17.61	4137.510678
17.615	4130.317439
17.62	4123.138284
17.625	4115.973182
17.63	4108.822103
17.635	4101.685016
17.64	4094.561892
17.645	4087.452699
17.65	4080.357408
17.655	4073.275988
17.66	4066.208409
17.665	4059.154641
17.67	4052.114655
17.675	4045.08842
17.68	4038.075907
17.685	4031.077085
17.69	4024.091926
17.695	4017.120399
17.7	4010.162476
17.705	4003.218126
17.71	3996.28732
17.715	3989.370029
17.72	3982.466224
17.725	3975.575875
17.73	3968.698954
17.735	3961.835432
17.74	3954.985278
17.745	3948.148465
17.75	3941.324964
17.755	3934.514746
17.76	3927.717781
17.765	3920.934043
17.77	3914.163501
17.775	3907.406128
17.78	3900.661895
17.785	3893.930774
17.79	3887.212736
17.795	3880.507754
17.8	3873.815798
17.805	3867.136842
17.81	3860.470856
17.815	3853.817813
17.82	3847.177686
17.825	3840.550445
17.83	3833.936065
17.835	3827.334515
17.84	3820.74577
17.845	3814.169802
17.85	3807.606583
17.855	3801.056085
17.86	3794.518281
17.865	3787.993145
17.87	3781.480648
17.875	3774.980764
17.88	3768.493465
17.885	3762.018724
17.89	3755.556515
17.895	3749.10681
17.9	3742.669583
17.905	3736.244806
17.91	3729.832454
17.915	3723.432499
17.92	3717.044914
17.925	3710.669674
17.93	3704.306751
17.935	3697.95612
17.94	3691.617753
17.945	3685.291625
17.95	3678.97771
17.955	3672.67598
17.96	3666.386411
17.965	3660.108976
17.97	3653.843648
17.975	3647.590403
17.98	3641.349214
17.985	3635.120055
17.99	3628.902901
17.995	3622.697725
18	3616.504503
18.005	3610.323209
18.01	3604.153817
18.015	3597.996301
18.02	3591.850637
18.025	3585.716799
18.03	3579.594762
18.035	3573.4845
18.04	3567.385988
18.045	3561.299202
18.05	3555.224116
18.055	3549.160705
18.06	3543.108945
18.065	3537.06881
18.07	3531.040275
18.075	3525.023317
18.08	3519.017909
18.085	3513.024028
18.09	3507.041649
18.095	3501.070748
18.1	3495.111299
18.105	3489.163279
18.11	3483.226664
18.115	3477.301428
18.12	3471.387548
18.125	3465.484999
18.13	3459.593758
18.135	3453.7138
18.14	3447.845102
18.145	3441.987638
18.15	3436.141387
18.155	3430.306323
18.16	3424.482422
18.165	3418.669662
18.17	3412.868018
18.175	3407.077467
18.18	3401.297985
18.185	3395.529549
18.19	3389.772135
18.195	3384.02572
18.2	3378.29028
18.205	3372.565793
18.21	3366.852235
18.215	3361.149582
18.22	3355.457812
18.225	3349.776901
18.23	3344.106827
18.235	3338.447567
18.24	3332.799097
18.245	3327.161395
18.25	3321.534437
18.255	3315.918202
18.26	3310.312667
18.265	3304.717808
18.27	3299.133603
18.275	3293.56003
18.28	3287.997067
18.285	3282.444689
18.29	3276.902877
18.295	3271.371606
18.3	3265.850855
18.305	3260.340601
18.31	3254.840822
18.315	3249.351497
18.32	3243.872603
18.325	3238.404117
18.33	3232.946019
18.335	3227.498285
18.34	3222.060895
18.345	3216.633826
18.35	3211.217057
18.355	3205.810565
18.36	3200.41433
18.365	3195.028329
18.37	3189.652541
18.375	3184.286945
18.38	3178.931518
18.385	3173.58624
18.39	3168.251089
18.395	3162.926043
18.4	3157.611083
18.405	3152.306185
18.41	3147.011329
18.415	3141.726495
18.42	3136.45166
18.425	3131.186804
18.43	3125.931906
18.435	3120.686944
18.44	3115.451899
18.445	3110.226748
18.45	3105.011472
18.455	3099.80605
18.46	3094.61046
18.465	3089.424682
18.47	3084.248696
18.475	3079.082481
18.48	3073.926017
18.485	3068.779283
18.49	3063.642258
18.495	3058.514922
18.5	3053.397255
18.505	3048.289237
18.51	3043.190847
18.515	3038.102066
18.52	3033.022872
18.525	3027.953247
18.53	3022.893169
18.535	3017.842619
18.54	3012.801577
18.545	3007.770024
18.55	3002.747938
18.555	2997.735301
18.56	2992.732092
18.565	2987.738292
18.57	2982.753882
18.575	2977.77884
18.58	2972.813149
18.585	2967.856788
18.59	2962.909738
18.595	2957.971979
18.6	2953.043493
18.605	2948.124259
18.61	2943.214258
18.615	2938.313471
18.62	2933.421879
18.625	2928.539463
18.63	2923.666203
18.635	2918.80208
18.64	2913.947076
18.645	2909.101171
18.65	2904.264346
18.655	2899.436582
18.66	2894.617861
18.665	2889.808163
18.67	2885.00747
18.675	2880.215763
18.68	2875.433024
18.685	2870.659233
18.69	2865.894372
18.695	2861.138422
18.7	2856.391365
18.705	2851.653183
18.71	2846.923856
18.715	2842.203367
18.72	2837.491697
18.725	2832.788828
18.73	2828.094741
18.735	2823.409419
18.74	2818.732842
18.745	2814.064993
18.75	2809.405854
18.755	2804.755406
18.76	2800.113632
18.765	2795.480513
18.77	2790.856032
18.775	2786.24017
18.78	2781.632911
18.785	2777.034235
18.79	2772.444125
18.795	2767.862564
18.8	2763.289533
18.805	2758.725015
18.81	2754.168992
18.815	2749.621447
18.82	2745.082362
18.825	2740.55172
18.83	2736.029503
18.835	2731.515693
18.84	2727.010274
18.845	2722.513228
18.85	2718.024537
18.855	2713.544185
18.86	2709.072153
18.865	2704.608426
18.87	2700.152985
18.875	2695.705813
18.88	2691.266894
18.885	2686.836211
18.89	2682.413745
18.895	2677.999482
18.9	2673.593402
18.905	2669.19549
18.91	2664.805729
18.915	2660.424102
18.92	2656.050592
18.925	2651.685182
18.93	2647.327856
18.935	2642.978597
18.94	2638.637388
18.945	2634.304213
18.95	2629.979055
18.955	2625.661898
18.96	2621.352725
18.965	2617.05152
18.97	2612.758266
18.975	2608.472947
18.98	2604.195546
18.985	2599.926048
18.99	2595.664436
18.995	2591.410694
19	2587.164805
19.005	2582.926754
19.01	2578.696524
19.015	2574.4741
19.02	2570.259465
19.025	2566.052603
19.03	2561.853498
19.035	2557.662135
19.04	2553.478497
19.045	2549.302569
19.05	2545.134335
19.055	2540.973778
19.06	2536.820884
19.065	2532.675636
19.07	2528.538019
19.075	2524.408017
19.08	2520.285615
19.085	2516.170796
19.09	2512.063546
19.095	2507.963849
19.1	2503.87169
19.105	2499.787052
19.11	2495.709921
19.115	2491.640281
19.12	2487.578117
19.125	2483.523413
19.13	2479.476155
19.135	2475.436327
19.14	2471.403914
19.145	2467.3789
19.15	2463.361271
19.155	2459.351012
19.16	2455.348107
19.165	2451.352541
19.17	2447.3643
19.175	2443.383368
19.18	2439.40973
19.185	2435.443372
19.19	2431.484279
19.195	2427.532436
19.2	2423.587828
19.205	2419.65044
19.21	2415.720258
19.215	2411.797267
19.22	2407.881452
19.225	2403.972798
19.23	2400.071292
19.235	2396.176918
19.24	2392.289662
19.245	2388.409509
19.25	2384.536445
19.255	2380.670456
19.26	2376.811527
19.265	2372.959644
19.27	2369.114792
19.275	2365.276957
19.28	2361.446125
19.285	2357.622281
19.29	2353.805412
19.295	2349.995503
19.3	2346.19254
19.305	2342.396509
19.31	2338.607396
19.315	2334.825187
19.32	2331.049867
19.325	2327.281423
19.33	2323.519841
19.335	2319.765107
19.34	2316.017206
19.345	2312.276126
19.35	2308.541852
19.355	2304.81437
19.36	2301.093667
19.365	2297.379729
19.37	2293.672542
19.375	2289.972093
19.38	2286.278368
19.385	2282.591353
19.39	2278.911034
19.395	2275.237399
19.4	2271.570433
19.405	2267.910123
19.41	2264.256456
19.415	2260.609418
19.42	2256.968995
19.425	2253.335175
19.43	2249.707944
19.435	2246.087289
19.44	2242.473196
19.445	2238.865652
19.45	2235.264644
19.455	2231.670159
19.46	2228.082183
19.465	2224.500703
19.47	2220.925707
19.475	2217.357181
19.48	2213.795112
19.485	2210.239487
19.49	2206.690293
19.495	2203.147517
19.5	2199.611146
19.505	2196.081167
19.51	2192.557568
19.515	2189.040335
19.52	2185.529456
19.525	2182.024917
19.53	2178.526707
19.535	2175.034812
19.54	2171.549219
19.545	2168.069917
19.55	2164.596891
19.555	2161.13013
19.56	2157.669622
19.565	2154.215352
19.57	2150.76731
19.575	2147.325481
19.58	2143.889855
19.585	2140.460418
19.59	2137.037158
19.595	2133.620062
19.6	2130.209119
19.605	2126.804315
19.61	2123.405639
19.615	2120.013078
19.62	2116.62662
19.625	2113.246252
19.63	2109.871963
19.635	2106.50374
19.64	2103.141571
19.645	2099.785444
19.65	2096.435347
19.655	2093.091267
19.66	2089.753193
19.665	2086.421113
19.67	2083.095014
19.675	2079.774885
19.68	2076.460713
19.685	2073.152488
19.69	2069.850196
19.695	2066.553825
19.7	2063.263365
19.705	2059.978804
19.71	2056.700128
19.715	2053.427328
19.72	2050.16039
19.725	2046.899303
19.73	2043.644056
19.735	2040.394637
19.74	2037.151034
19.745	2033.913236
19.75	2030.68123
19.755	2027.455006
19.76	2024.234552
19.765	2021.019856
19.77	2017.810907
19.775	2014.607694
19.78	2011.410204
19.785	2008.218427
19.79	2005.032351
19.795	2001.851965
19.8	1998.677258
19.805	1995.508217
19.81	1992.344832
19.815	1989.187092
19.82	1986.034985
19.825	1982.8885
19.83	1979.747626
19.835	1976.612352
19.84	1973.482667
19.845	1970.358558
19.85	1967.240017
19.855	1964.12703
19.86	1961.019588
19.865	1957.917679
19.87	1954.821292
19.875	1951.730417
19.88	1948.645041
19.885	1945.565155
19.89	1942.490748
19.895	1939.421808
19.9	1936.358325
19.905	1933.300288
19.91	1930.247685
19.915	1927.200507
19.92	1924.158743
19.925	1921.122382
19.93	1918.091412
19.935	1915.065824
19.94	1912.045606
19.945	1909.030749
19.95	1906.021241
19.955	1903.017072
19.96	1900.018231
19.965	1897.024708
19.97	1894.036492
19.975	1891.053573
19.98	1888.07594
19.985	1885.103583
19.99	1882.13649
19.995	1879.174653
20	1876.218061
20.005	1873.266702
20.01	1870.320567
20.015	1867.379646
20.02	1864.443927
20.025	1861.513402
20.03	1858.588059
20.035	1855.667889
20.04	1852.75288
20.045	1849.843024
20.05	1846.938309
20.055	1844.038726
20.06	1841.144265
20.065	1838.254914
20.07	1835.370666
20.075	1832.491508
20.08	1829.617432
20.085	1826.748426
20.09	1823.884482
20.095	1821.02559
20.1	1818.171738
20.105	1815.322918
20.11	1812.479119
20.115	1809.640332
20.12	1806.806546
20.125	1803.977753
20.13	1801.153941
20.135	1798.335101
20.14	1795.521224
20.145	1792.7123
20.15	1789.908318
20.155	1787.10927
20.16	1784.315145
20.165	1781.525934
20.17	1778.741628
20.175	1775.962215
20.18	1773.187688
20.185	1770.418036
20.19	1767.65325
20.195	1764.89332
20.2	1762.138236
20.205	1759.38799
20.21	1756.642572
20.215	1753.901972
20.22	1751.16618
20.225	1748.435188
20.23	1745.708986
20.235	1742.987564
20.24	1740.270913
20.245	1737.559025
20.25	1734.851888
20.255	1732.149495
20.26	1729.451836
20.265	1726.758902
20.27	1724.070683
20.275	1721.38717
20.28	1718.708354
20.285	1716.034225
20.29	1713.364776
20.295	1710.699995
20.3	1708.039876
20.305	1705.384407
20.31	1702.73358
20.315	1700.087387
20.32	1697.445817
20.325	1694.808863
20.33	1692.176514
20.335	1689.548762
20.34	1686.925599
20.345	1684.307014
20.35	1681.693
20.355	1679.083546
20.36	1676.478645
20.365	1673.878287
20.37	1671.282464
20.375	1668.691167
20.38	1666.104386
20.385	1663.522114
20.39	1660.944341
20.395	1658.371058
20.4	1655.802258
20.405	1653.23793
20.41	1650.678067
20.415	1648.122659
20.42	1645.571698
20.425	1643.025176
20.43	1640.483084
20.435	1637.945412
20.44	1635.412153
20.445	1632.883298
20.45	1630.358839
20.455	1627.838766
20.46	1625.323071
20.465	1622.811747
20.47	1620.304783
20.475	1617.802173
20.48	1615.303907
20.485	1612.809976
20.49	1610.320374
20.495	1607.83509
20.5	1605.354118
20.505	1602.877447
20.51	1600.405071
20.515	1597.936981
20.52	1595.473168
20.525	1593.013624
20.53	1590.558341
20.535	1588.107311
20.54	1585.660525
20.545	1583.217975
20.55	1580.779653
20.555	1578.345551
20.56	1575.915661
20.565	1573.489974
20.57	1571.068482
20.575	1568.651178
20.58	1566.238052
20.585	1563.829098
20.59	1561.424307
20.595	1559.02367
20.6	1556.627181
20.605	1554.234831
20.61	1551.846611
20.615	1549.462514
20.62	1547.082532
20.625	1544.706658
20.63	1542.334882
20.635	1539.967198
20.64	1537.603596
20.645	1535.244071
20.65	1532.888612
20.655	1530.537214
20.66	1528.189867
20.665	1525.846565
20.67	1523.507298
20.675	1521.17206
20.68	1518.840843
20.685	1516.513639
20.69	1514.19044
20.695	1511.871239
20.7	1509.556028
20.705	1507.244798
20.71	1504.937544
20.715	1502.634256
20.72	1500.334927
20.725	1498.03955
20.73	1495.748117
20.735	1493.460621
20.74	1491.177053
20.745	1488.897407
20.75	1486.621675
20.755	1484.349849
20.76	1482.081921
20.765	1479.817885
20.77	1477.557733
20.775	1475.301457
20.78	1473.04905
20.785	1470.800505
20.79	1468.555813
20.795	1466.314969
20.8	1464.077963
20.805	1461.84479
20.81	1459.615441
20.815	1457.38991
20.82	1455.168188
20.825	1452.95027
20.83	1450.736147
20.835	1448.525811
20.84	1446.319257
20.845	1444.116476
20.85	1441.917462
20.855	1439.722207
20.86	1437.530704
20.865	1435.342946
20.87	1433.158926
20.875	1430.978636
20.88	1428.80207
20.885	1426.62922
20.89	1424.460079
20.895	1422.29464
20.9	1420.132896
20.905	1417.97484
20.91	1415.820466
20.915	1413.669765
20.92	1411.522731
20.925	1409.379357
20.93	1407.239635
20.935	1405.10356
20.94	1402.971124
20.945	1400.84232
20.95	1398.717141
20.955	1396.59558
20.96	1394.477631
20.965	1392.363286
20.97	1390.252538
20.975	1388.145382
20.98	1386.041809
20.985	1383.941813
20.99	1381.845388
20.995	1379.752526
21	1377.663221
21.005	1375.577466
21.01	1373.495253
21.015	1371.416578
21.02	1369.341432
21.025	1367.269809
21.03	1365.201702
21.035	1363.137105
21.04	1361.076011
21.045	1359.018414
21.05	1356.964306
21.055	1354.913681
21.06	1352.866532
21.065	1350.822853
21.07	1348.782638
21.075	1346.745879
21.08	1344.712571
21.085	1342.682705
21.09	1340.656277
21.095	1338.63328
21.1	1336.613707
21.105	1334.597551
21.11	1332.584806
21.115	1330.575466
21.12	1328.569524
21.125	1326.566973
21.13	1324.567808
21.135	1322.572022
21.14	1320.579609
21.145	1318.590561
21.15	1316.604873
21.155	1314.622539
21.16	1312.643552
21.165	1310.667905
21.17	1308.695593
21.175	1306.726609
21.18	1304.760947
21.185	1302.7986
21.19	1300.839563
21.195	1298.883829
21.2	1296.931391
21.205	1294.982244
21.21	1293.036382
21.215	1291.093798
21.22	1289.154485
21.225	1287.218439
21.23	1285.285652
21.235	1283.356119
21.24	1281.429833
21.245	1279.506788
21.25	1277.586978
21.255	1275.670398
21.26	1273.75704
21.265	1271.8469
21.27	1269.93997
21.275	1268.036245
21.28	1266.135719
21.285	1264.238385
21.29	1262.344238
21.295	1260.453273
21.3	1258.565481
21.305	1256.680859
21.31	1254.799399
21.315	1252.921097
21.32	1251.045945
21.325	1249.173938
21.33	1247.305071
21.335	1245.439336
21.34	1243.57673
21.345	1241.717244
21.35	1239.860874
21.355	1238.007614
21.36	1236.157458
21.365	1234.3104
21.37	1232.466434
21.375	1230.625555
21.38	1228.787757
21.385	1226.953033
21.39	1225.121379
21.395	1223.292788
21.4	1221.467254
21.405	1219.644773
21.41	1217.825338
21.415	1216.008944
21.42	1214.195584
21.425	1212.385253
21.43	1210.577946
21.435	1208.773657
21.44	1206.97238
21.445	1205.17411
21.45	1203.37884
21.455	1201.586566
21.46	1199.797282
21.465	1198.010982
21.47	1196.22766
21.475	1194.447311
21.48	1192.66993
21.485	1190.895511
21.49	1189.124048
21.495	1187.355536
21.5	1185.589969
21.505	1183.827342
21.51	1182.06765
21.515	1180.310886
21.52	1178.557046
21.525	1176.806124
21.53	1175.058114
21.535	1173.313012
21.54	1171.570811
21.545	1169.831507
21.55	1168.095093
21.555	1166.361565
21.56	1164.630917
21.565	1162.903144
21.57	1161.17824
21.575	1159.4562
21.58	1157.737019
21.585	1156.020692
21.59	1154.307213
21.595	1152.596576
21.6	1150.888777
21.605	1149.183811
21.61	1147.481671
21.615	1145.782353
21.62	1144.085852
21.625	1142.392162
21.63	1140.701278
21.635	1139.013195
21.64	1137.327907
21.645	1135.64541
21.65	1133.965698
21.655	1132.288767
21.66	1130.61461
21.665	1128.943223
21.67	1127.274601
21.675	1125.608739
21.68	1123.945631
21.685	1122.285272
21.69	1120.627657
21.695	1118.972782
21.7	1117.320641
21.705	1115.671229
21.71	1114.02454
21.715	1112.380571
21.72	1110.739316
21.725	1109.100769
21.73	1107.464926
21.735	1105.831783
21.74	1104.201333
21.745	1102.573572
21.75	1100.948494
21.755	1099.326096
21.76	1097.706372
21.765	1096.089317
21.77	1094.474926
21.775	1092.863194
21.78	1091.254117
21.785	1089.647689
21.79	1088.043906
21.795	1086.442762
21.8	1084.844253
21.805	1083.248374
21.81	1081.65512
21.815	1080.064486
21.82	1078.476468
21.825	1076.89106
21.83	1075.308258
21.835	1073.728056
21.84	1072.150451
21.845	1070.575438
21.85	1069.003011
21.855	1067.433166
21.86	1065.865898
21.865	1064.301202
21.87	1062.739074
21.875	1061.179509
21.88	1059.622502
21.885	1058.068049
21.89	1056.516144
21.895	1054.966783
21.9	1053.419962
21.905	1051.875676
21.91	1050.33392
21.915	1048.794689
21.92	1047.257979
21.925	1045.723785
21.93	1044.192103
21.935	1042.662928
21.94	1041.136255
21.945	1039.612079
21.95	1038.090398
21.955	1036.571204
21.96	1035.054495
21.965	1033.540265
21.97	1032.02851
21.975	1030.519226
21.98	1029.012407
21.985	1027.50805
21.99	1026.00615
21.995	1024.506702
22	1023.009702
22.005	1021.515145
22.01	1020.023027
22.015	1018.533344
22.02	1017.046091
22.025	1015.561263
22.03	1014.078856
22.035	1012.598866
22.04	1011.121289
22.045	1009.646119
22.05	1008.173353
22.055	1006.702985
22.06	1005.235013
22.065	1003.769431
22.07	1002.306234
22.075	1000.84542
22.08	999.3869824
22.085	997.9309179
22.09	996.477222
22.095	995.0258904
22.1	993.5769187
22.105	992.1303027
22.11	990.6860381
22.115	989.2441205
22.12	987.8045457
22.125	986.3673094
22.13	984.9324074
22.135	983.4998354
22.14	982.0695891
22.145	980.6416644
22.15	979.216057
22.155	977.7927627
22.16	976.3717773
22.165	974.9530965
22.17	973.5367162
22.175	972.1226323
22.18	970.7108404
22.185	969.3013366
22.19	967.8941165
22.195	966.4891761
22.2	965.0865111
22.205	963.6861176
22.21	962.2879913
22.215	960.8921281
22.22	959.498524
22.225	958.1071748
22.23	956.7180764
22.235	955.3312248
22.24	953.9466158
22.245	952.5642454
22.25	951.1841096
22.255	949.8062043
22.26	948.4305254
22.265	947.0570689
22.27	945.6858309
22.275	944.3168071
22.28	942.9499938
22.285	941.5853868
22.29	940.2229821
22.295	938.8627758
22.3	937.504764
22.305	936.1489425
22.31	934.7953075
22.315	933.443855
22.32	932.094581
22.325	930.7474817
22.33	929.402553
22.335	928.0597911
22.34	926.719192
22.345	925.3807519
22.35	924.0444668
22.355	922.7103329
22.36	921.3783462
22.365	920.0485029
22.37	918.7207991
22.375	917.3952309
22.38	916.0717946
22.385	914.7504862
22.39	913.4313019
22.395	912.1142379
22.4	910.7992903
22.405	909.4864554
22.41	908.1757293
22.415	906.8671083
22.42	905.5605885
22.425	904.2561661
22.43	902.9538375
22.435	901.6535987
22.44	900.3554461
22.445	899.0593759
22.45	897.7653843
22.455	896.4734676
22.46	895.1836221
22.465	893.895844
22.47	892.6101297
22.475	891.3264754
22.48	890.0448774
22.485	888.765332
22.49	887.4878355
22.495	886.2123843
22.5	884.9389746
22.505	883.6676029
22.51	882.3982654
22.515	881.1309585
22.52	879.8656785
22.525	878.6024219
22.53	877.341185
22.535	876.0819641
22.54	874.8247556
22.545	873.569556
22.55	872.3163616
22.555	871.0651689
22.56	869.8159742
22.565	868.568774
22.57	867.3235647
22.575	866.0803427
22.58	864.8391045
22.585	863.5998465
22.59	862.3625652
22.595	861.127257
22.6	859.8939184
22.605	858.6625459
22.61	857.433136
22.615	856.2056852
22.62	854.9801899
22.625	853.7566466
22.63	852.5350519
22.635	851.3154023
22.64	850.0976944
22.645	848.8819245
22.65	847.6680894
22.655	846.4561855
22.66	845.2462093
22.665	844.0381575
22.67	842.8320266
22.675	841.6278132
22.68	840.4255138
22.685	839.2251251
22.69	838.0266436
22.695	836.8300659
22.7	835.6353887
22.705	834.4426085
22.71	833.251722
22.715	832.0627258
22.72	830.8756165
22.725	829.6903908
22.73	828.5070453
22.735	827.3255767
22.74	826.1459816
22.745	824.9682567
22.75	823.7923987
22.755	822.6184042
22.76	821.44627
22.765	820.2759926
22.77	819.1075689
22.775	817.9409955
22.78	816.7762692
22.785	815.6133866
22.79	814.4523445
22.795	813.2931396
22.8	812.1357687
22.805	810.9802284
22.81	809.8265156
22.815	808.674627
22.82	807.5245593
22.825	806.3763094
22.83	805.229874
22.835	804.0852498
22.84	802.9424338
22.845	801.8014226
22.85	800.6622131
22.855	799.5248021
22.86	798.3891863
22.865	797.2553627
22.87	796.123328
22.875	794.9930791
22.88	793.8646128
22.885	792.7379259
22.89	791.6130154
22.895	790.489878
22.9	789.3685106
22.905	788.2489101
22.91	787.1310734
22.915	786.0149974
22.92	784.9006788
22.925	783.7881148
22.93	782.677302
22.935	781.5682375
22.94	780.4609181
22.945	779.3553408
22.95	778.2515024
22.955	777.1494
22.96	776.0490305
22.965	774.9503907
22.97	773.8534777
22.975	772.7582884
22.98	771.6648197
22.985	770.5730687
22.99	769.4830322
22.995	768.3947074
23	767.3080911
23.005	766.2231803
23.01	765.1399721
23.015	764.0584634
23.02	762.9786513
23.025	761.9005327
23.03	760.8241047
23.035	759.7493643
23.04	758.6763085
23.045	757.6049345
23.05	756.5352391
23.055	755.4672195
23.06	754.4008727
23.065	753.3361957
23.07	752.2731857
23.075	751.2118397
23.08	750.1521548
23.085	749.0941281
23.09	748.0377566
23.095	746.9830375
23.1	745.9299678
23.105	744.8785446
23.11	743.8287651
23.115	742.7806264
23.12	741.7341256
23.125	740.6892598
23.13	739.6460261
23.135	738.6044218
23.14	737.5644439
23.145	736.5260895
23.15	735.4893559
23.155	734.4542403
23.16	733.4207396
23.165	732.3888512
23.17	731.3585723
23.175	730.3298999
23.18	729.3028313
23.185	728.2773637
23.19	727.2534943
23.195	726.2312202
23.2	725.2105388
23.205	724.1914471
23.21	723.1739425
23.215	722.1580221
23.22	721.1436832
23.225	720.130923
23.23	719.1197388
23.235	718.1101277
23.24	717.1020872
23.245	716.0956143
23.25	715.0907065
23.255	714.0873608
23.26	713.0855747
23.265	712.0853454
23.27	711.0866702
23.275	710.0895464
23.28	709.0939712
23.285	708.099942
23.29	707.1074561
23.295	706.1165107
23.3	705.1271033
23.305	704.139231
23.31	703.1528914
23.315	702.1680815
23.32	701.1847989
23.325	700.2030409
23.33	699.2228048
23.335	698.2440879
23.34	697.2668876
23.345	696.2912013
23.35	695.3170263
23.355	694.34436
23.36	693.3731998
23.365	692.4035431
23.37	691.4353872
23.375	690.4687296
23.38	689.5035677
23.385	688.5398987
23.39	687.5777203
23.395	686.6170296
23.4	685.6578243
23.405	684.7001017
23.41	683.7438592
23.415	682.7890943
23.42	681.8358043
23.425	680.8839868
23.43	679.9336392
23.435	678.984759
23.44	678.0373435
23.445	677.0913903
23.45	676.1468968
23.455	675.2038605
23.46	674.2622789
23.465	673.3221495
23.47	672.3834696
23.475	671.446237
23.48	670.5104489
23.485	669.5761029
23.49	668.6431966
23.495	667.7117275
23.5	666.7816929
23.505	665.8530906
23.51	664.9259179
23.515	664.0001725
23.52	663.0758518
23.525	662.1529535
23.53	661.231475
23.535	660.3114138
23.54	659.3927676
23.545	658.4755339
23.55	657.5597103
23.555	656.6452943
23.56	655.7322835
23.565	654.8206754
23.57	653.9104677
23.575	653.001658
23.58	652.0942438
23.585	651.1882227
23.59	650.2835923
23.595	649.3803502
23.6	648.4784941
23.605	647.5780216
23.61	646.6789301
23.615	645.7812175
23.62	644.8848813
23.625	643.9899191
23.63	643.0963286
23.635	642.2041075
23.64	641.3132532
23.645	640.4237636
23.65	639.5356363
23.655	638.6488689
23.66	637.763459
23.665	636.8794044
23.67	635.9967027
23.675	635.1153517
23.68	634.2353489
23.685	633.356692
23.69	632.4793788
23.695	631.603407
23.7	630.7287742
23.705	629.8554781
23.71	628.9835165
23.715	628.1128871
23.72	627.2435875
23.725	626.3756155
23.73	625.5089688
23.735	624.6436452
23.74	623.7796424
23.745	622.9169581
23.75	622.05559
23.755	621.1955359
23.76	620.3367936
23.765	619.4793608
23.77	618.6232353
23.775	617.7684148
23.78	616.914897
23.785	616.0626799
23.79	615.2117611
23.795	614.3621384
23.8	613.5138096
23.805	612.6667725
23.81	611.8210248
23.815	610.9765645
23.82	610.1333892
23.825	609.2914969
23.83	608.4508852
23.835	607.611552
23.84	606.7734951
23.845	605.9367124
23.85	605.1012017
23.855	604.2669607
23.86	603.4339874
23.865	602.6022796
23.87	601.771835
23.875	600.9426516
23.88	600.1147273
23.885	599.2880598
23.89	598.462647
23.895	597.6384868
23.9	596.815577
23.905	595.9939156
23.91	595.1735003
23.915	594.3543291
23.92	593.5363999
23.925	592.7197105
23.93	591.9042589
23.935	591.0900428
23.94	590.2770603
23.945	589.4653092
23.95	588.6547875
23.955	587.845493
23.96	587.0374236
23.965	586.2305773
23.97	585.424952
23.975	584.6205456
23.98	583.8173561
23.985	583.0153813
23.99	582.2146193
23.995	581.4150679
24	580.6167252
24.005	579.8195889
24.01	579.0236572
24.015	578.228928
24.02	577.4353992
24.025	576.6430688
24.03	575.8519347
24.035	575.061995
24.04	574.2732476
24.045	573.4856905
24.05	572.6993216
24.055	571.914139
24.06	571.1301407
24.065	570.3473246
24.07	569.5656887
24.075	568.7852311
24.08	568.0059498
24.085	567.2278427
24.09	566.4509079
24.095	565.6751434
24.1	564.9005472
24.105	564.1271173
24.11	563.3548518
24.115	562.5837487
24.12	561.8138061
24.125	561.0450219
24.13	560.2773942
24.135	559.5109211
24.14	558.7456007
24.145	557.9814309
24.15	557.2184098
24.155	556.4565355
24.16	555.6958061
24.165	554.9362196
24.17	554.1777742
24.175	553.4204677
24.18	552.6642985
24.185	551.9092645
24.19	551.1553638
24.195	550.4025945
24.2	549.6509548
24.205	548.9004426
24.21	548.1510562
24.215	547.4027936
24.22	546.6556529
24.225	545.9096322
24.23	545.1647297
24.235	544.4209434
24.24	543.6782716
24.245	542.9367122
24.25	542.1962636
24.255	541.4569237
24.26	540.7186907
24.265	539.9815627
24.27	539.245538
24.275	538.5106146
24.28	537.7767907
24.285	537.0440645
24.29	536.3124341
24.295	535.5818976
24.3	534.8524533
24.305	534.1240993
24.31	533.3968337
24.315	532.6706548
24.32	531.9455608
24.325	531.2215497
24.33	530.4986198
24.335	529.7767693
24.34	529.0559964
24.345	528.3362992
24.35	527.617676
24.355	526.900125
24.36	526.1836443
24.365	525.4682322
24.37	524.7538869
24.375	524.0406066
24.38	523.3283895
24.385	522.6172339
24.39	521.9071379
24.395	521.1980998
24.4	520.4901179
24.405	519.7831903
24.41	519.0773153
24.415	518.3724911
24.42	517.6687161
24.425	516.9659883
24.43	516.2643062
24.435	515.5636679
24.44	514.8640716
24.445	514.1655158
24.45	513.4679985
24.455	512.7715182
24.46	512.076073
24.465	511.3816612
24.47	510.6882811
24.475	509.995931
24.48	509.3046092
24.485	508.614314
24.49	507.9250436
24.495	507.2367963
24.5	506.5495705
24.505	505.8633644
24.51	505.1781763
24.515	504.4940046
24.52	503.8108475
24.525	503.1287034
24.53	502.4475706
24.535	501.7674473
24.54	501.088332
24.545	500.4102229
24.55	499.7331184
24.555	499.0570167
24.56	498.3819163
24.565	497.7078155
24.57	497.0347125
24.575	496.3626058
24.58	495.6914937
24.585	495.0213746
24.59	494.3522467
24.595	493.6841085
24.6	493.0169583
24.605	492.3507945
24.61	491.6856153
24.615	491.0214193
24.62	490.3582048
24.625	489.6959701
24.63	489.0347136
24.635	488.3744337
24.64	487.7151287
24.645	487.0567972
24.65	486.3994373
24.655	485.7430477
24.66	485.0876265
24.665	484.4331723
24.67	483.7796834
24.675	483.1271582
24.68	482.4755952
24.685	481.8249928
24.69	481.1753492
24.695	480.5266631
24.7	479.8789327
24.705	479.2321566
24.71	478.5863331
24.715	477.9414606
24.72	477.2975376
24.725	476.6545626
24.73	476.0125339
24.735	475.37145
24.74	474.7313093
24.745	474.0921103
24.75	473.4538514
24.755	472.8165311
24.76	472.1801478
24.765	471.5447
24.77	470.9101861
24.775	470.2766046
24.78	469.643954
24.785	469.0122327
24.79	468.3814392
24.795	467.7515719
24.8	467.1226294
24.805	466.4946101
24.81	465.8675125
24.815	465.241335
24.82	464.6160763
24.825	463.9917346
24.83	463.3683087
24.835	462.7457968
24.84	462.1241976
24.845	461.5035095
24.85	460.8837311
24.855	460.2648608
24.86	459.6468971
24.865	459.0298386
24.87	458.4136838
24.875	457.7984312
24.88	457.1840792
24.885	456.5706265
24.89	455.9580715
24.895	455.3464128
24.9	454.735649
24.905	454.1257784
24.91	453.5167997
24.915	452.9087115
24.92	452.3015121
24.925	451.6952003
24.93	451.0897745
24.935	450.4852333
24.94	449.8815752
24.945	449.2787988
24.95	448.6769027
24.955	448.0758854
24.96	447.4757454
24.965	446.8764813
24.97	446.2780918
24.975	445.6805753
24.98	445.0839304
24.985	444.4881558
24.99	443.8932499
24.995	443.2992114
25	442.7060389
25.005	442.1137309
25.01	441.522286
25.015	440.9317028
25.02	440.3419799
25.025	439.7531159
25.03	439.1651094
25.035	438.577959
25.04	437.9916633
25.045	437.4062209
25.05	436.8216304
25.055	436.2378905
25.06	435.6549996
25.065	435.0729565
25.07	434.4917598
25.075	433.911408
25.08	433.3318999
25.085	432.753234
25.09	432.1754089
25.095	431.5984234
25.1	431.0222759
25.105	430.4469652
25.11	429.87249
25.115	429.2988487
25.12	428.7260401
25.125	428.1540629
25.13	427.5829156
25.135	427.012597
25.14	426.4431056
25.145	425.8744401
25.15	425.3065992
25.155	424.7395816
25.16	424.1733859
25.165	423.6080108
25.17	423.0434549
25.175	422.4797169
25.18	421.9167954
25.185	421.3546893
25.19	420.793397
25.195	420.2329174
25.2	419.6732491
25.205	419.1143907
25.21	418.556341
25.215	417.9990987
25.22	417.4426624
25.225	416.8870308
25.23	416.3322026
25.235	415.7781766
25.24	415.2249514
25.245	414.6725258
25.25	414.1208983
25.255	413.5700679
25.26	413.020033
25.265	412.4707926
25.27	411.9223452
25.275	411.3746896
25.28	410.8278245
25.285	410.2817486
25.29	409.7364608
25.295	409.1919596
25.3	408.6482438
25.305	408.1053121
25.31	407.5631634
25.315	407.0217962
25.32	406.4812094
25.325	405.9414017
25.33	405.4023718
25.335	404.8641185
25.34	404.3266405
25.345	403.7899365
25.35	403.2540054
25.355	402.7188459
25.36	402.1844567
25.365	401.6508366
25.37	401.1179843
25.375	400.5858986
25.38	400.0545783
25.385	399.5240222
25.39	398.9942289
25.395	398.4651974
25.4	397.9369263
25.405	397.4094144
25.41	396.8826605
25.415	396.3566634
25.42	395.8314219
25.425	395.3069347
25.43	394.7832006
25.435	394.2602185
25.44	393.7379871
25.445	393.2165052
25.45	392.6957717
25.455	392.1757852
25.46	391.6565446
25.465	391.1380487
25.47	390.6202963
25.475	390.1032863
25.48	389.5870173
25.485	389.0714883
25.49	388.556698
25.495	388.0426453
25.5	387.529329
25.505	387.0167478
25.51	386.5049007
25.515	385.9937864
25.52	385.4834037
25.525	384.9737515
25.53	384.4648287
25.535	383.956634
25.54	383.4491663
25.545	382.9424244
25.55	382.4364071
25.555	381.9311134
25.56	381.4265419
25.565	380.9226917
25.57	380.4195614
25.575	379.9171501
25.58	379.4154565
25.585	378.9144794
25.59	378.4142178
25.595	377.9146704
25.6	377.4158362
25.605	376.917714
25.61	376.4203026
25.615	375.923601
25.62	375.427608
25.625	374.9323224
25.63	374.4377432
25.635	373.9438691
25.64	373.4506992
25.645	372.9582322
25.65	372.466467
25.655	371.9754026
25.66	371.4850377
25.665	370.9953713
25.67	370.5064023
25.675	370.0181295
25.68	369.5305519
25.685	369.0436683
25.69	368.5574777
25.695	368.0719788
25.7	367.5871707
25.705	367.1030522
25.71	366.6196223
25.715	366.1368797
25.72	365.6548235
25.725	365.1734526
25.73	364.6927658
25.735	364.2127621
25.74	363.7334403
25.745	363.2547994
25.75	362.7768384
25.755	362.2995561
25.76	361.8229514
25.765	361.3470233
25.77	360.8717707
25.775	360.3971925
25.78	359.9232877
25.785	359.4500552
25.79	358.9774939
25.795	358.5056027
25.8	358.0343807
25.805	357.5638266
25.81	357.0939395
25.815	356.6247184
25.82	356.1561621
25.825	355.6882696
25.83	355.2210398
25.835	354.7544718
25.84	354.2885644
25.845	353.8233166
25.85	353.3587273
25.855	352.8947956
25.86	352.4315204
25.865	351.9689005
25.87	351.5069351
25.875	351.0456231
25.88	350.5849633
25.885	350.1249549
25.89	349.6655967
25.895	349.2068878
25.9	348.7488271
25.905	348.2914135
25.91	347.8346461
25.915	347.3785239
25.92	346.9230458
25.925	346.4682108
25.93	346.0140179
25.935	345.5604661
25.94	345.1075543
25.945	344.6552816
25.95	344.2036469
25.955	343.7526492
25.96	343.3022876
25.965	342.8525611
25.97	342.4034685
25.975	341.955009
25.98	341.5071815
25.985	341.0599851
25.99	340.6134186
25.995	340.1674813
26	339.722172
26.005	339.2774897
26.01	338.8334336
26.015	338.3900025
26.02	337.9471955
26.025	337.5050117
26.03	337.06345
26.035	336.6225095
26.04	336.1821892
26.045	335.7424881
26.05	335.3034052
26.055	334.8649396
26.06	334.4270903
26.065	333.9898564
26.07	333.5532368
26.075	333.1172306
26.08	332.6818368
26.085	332.2470545
26.09	331.8128828
26.095	331.3793205
26.1	330.9463669
26.105	330.514021
26.11	330.0822817
26.115	329.6511481
26.12	329.2206194
26.125	328.7906945
26.13	328.3613725
26.135	327.9326524
26.14	327.5045334
26.145	327.0770144
26.15	326.6500945
26.155	326.2237728
26.16	325.7980484
26.165	325.3729203
26.17	324.9483875
26.175	324.5244492
26.18	324.1011045
26.185	323.6783523
26.19	323.2561918
26.195	322.834622
26.2	322.413642
26.205	321.993251
26.21	321.5734479
26.215	321.1542318
26.22	320.7356019
26.225	320.3175572
26.23	319.9000968
26.235	319.4832198
26.24	319.0669253
26.245	318.6512124
26.25	318.2360801
26.255	317.8215276
26.26	317.4075539
26.265	316.9941582
26.27	316.5813396
26.275	316.1690971
26.28	315.7574298
26.285	315.3463369
26.29	314.9358175
26.295	314.5258706
26.3	314.1164954
26.305	313.707691
26.31	313.2994565
26.315	312.8917909
26.32	312.4846936
26.325	312.0781634
26.33	311.6721996
26.335	311.2668013
26.34	310.8619675
26.345	310.4576975
26.35	310.0539904
26.355	309.6508451
26.36	309.248261
26.365	308.8462371
26.37	308.4447726
26.375	308.0438665
26.38	307.643518
26.385	307.2437263
26.39	306.8444905
26.395	306.4458096
26.4	306.047683
26.405	305.6501096
26.41	305.2530887
26.415	304.8566193
26.42	304.4607007
26.425	304.065332
26.43	303.6705122
26.435	303.2762407
26.44	302.8825164
26.445	302.4893386
26.45	302.0967065
26.455	301.7046191
26.46	301.3130757
26.465	300.9220753
26.47	300.5316172
26.475	300.1417005
26.48	299.7523244
26.485	299.363488
26.49	298.9751905
26.495	298.5874311
26.5	298.200209
26.505	297.8135232
26.51	297.427373
26.515	297.0417576
26.52	296.6566761
26.525	296.2721276
26.53	295.8881115
26.535	295.5046268
26.54	295.1216727
26.545	294.7392485
26.55	294.3573532
26.555	293.9759862
26.56	293.5951464
26.565	293.2148333
26.57	292.8350459
26.575	292.4557833
26.58	292.077045
26.585	291.6988299
26.59	291.3211373
26.595	290.9439664
26.6	290.5673164
26.605	290.1911865
26.61	289.8155759
26.615	289.4404838
26.62	289.0659094
26.625	288.6918519
26.63	288.3183104
26.635	287.9452843
26.64	287.5727727
26.645	287.2007748
26.65	286.8292898
26.655	286.458317
26.66	286.0878555
26.665	285.7179046
26.67	285.3484635
26.675	284.9795314
26.68	284.6111075
26.685	284.243191
26.69	283.8757812
26.695	283.5088773
26.7	283.1424784
26.705	282.7765839
26.71	282.411193
26.715	282.0463048
26.72	281.6819187
26.725	281.3180338
26.73	280.9546494
26.735	280.5917646
26.74	280.2293788
26.745	279.8674912
26.75	279.506101
26.755	279.1452074
26.76	278.7848098
26.765	278.4249072
26.77	278.065499
26.775	277.7065845
26.78	277.3481628
26.785	276.9902332
26.79	276.6327949
26.795	276.2758472
26.8	275.9193894
26.805	275.5634207
26.81	275.2079404
26.815	274.8529476
26.82	274.4984417
26.825	274.1444219
26.83	273.7908875
26.835	273.4378378
26.84	273.0852719
26.845	272.7331892
26.85	272.3815888
26.855	272.0304702
26.86	271.6798325
26.865	271.329675
26.87	270.979997
26.875	270.6307977
26.88	270.2820765
26.885	269.9338325
26.89	269.5860651
26.895	269.2387735
26.9	268.8919571
26.905	268.545615
26.91	268.1997465
26.915	267.8543511
26.92	267.5094278
26.925	267.164976
26.93	266.820995
26.935	266.4774841
26.94	266.1344425
26.945	265.7918696
26.95	265.4497646
26.955	265.1081268
26.96	264.7669555
26.965	264.42625
26.97	264.0860095
26.975	263.7462335
26.98	263.4069211
26.985	263.0680717
26.99	262.7296846
26.995	262.391759
27	262.0542942
27.005	261.7172897
27.01	261.3807446
27.015	261.0446582
27.02	260.70903
27.025	260.3738591
27.03	260.0391448
27.035	259.7048866
27.04	259.3710837
27.045	259.0377354
27.05	258.704841
27.055	258.3723998
27.06	258.0404112
27.065	257.7088744
27.07	257.3777888
27.075	257.0471537
27.08	256.7169684
27.085	256.3872322
27.09	256.0579445
27.095	255.7291045
27.1	255.4007116
27.105	255.0727652
27.11	254.7452644
27.115	254.4182088
27.12	254.0915975
27.125	253.76543
27.13	253.4397055
27.135	253.1144234
27.14	252.789583
27.145	252.4651837
27.15	252.1412247
27.155	251.8177055
27.16	251.4946253
27.165	251.1719835
27.17	250.8497794
27.175	250.5280124
27.18	250.2066818
27.185	249.8857869
27.19	249.5653272
27.195	249.2453018
27.2	248.9257103
27.205	248.6065519
27.21	248.2878259
27.215	247.9695318
27.22	247.6516689
27.225	247.3342365
27.23	247.0172339
27.235	246.7006606
27.24	246.3845159
27.245	246.0687991
27.25	245.7535096
27.255	245.4386467
27.26	245.1242099
27.265	244.8101984
27.27	244.4966116
27.275	244.183449
27.28	243.8707098
27.285	243.5583934
27.29	243.2464992
27.295	242.9350265
27.3	242.6239748
27.305	242.3133434
27.31	242.0031315
27.315	241.6933388
27.32	241.3839644
27.325	241.0750077
27.33	240.7664683
27.335	240.4583453
27.34	240.1506382
27.345	239.8433464
27.35	239.5364692
27.355	239.230006
27.36	238.9239563
27.365	238.6183193
27.37	238.3130945
27.375	238.0082812
27.38	237.7038788
27.385	237.3998868
27.39	237.0963045
27.395	236.7931312
27.4	236.4903665
27.405	236.1880095
27.41	235.8860599
27.415	235.5845169
27.42	235.2833799
27.425	234.9826483
27.43	234.6823216
27.435	234.3823991
27.44	234.0828802
27.445	233.7837643
27.45	233.4850509
27.455	233.1867392
27.46	232.8888287
27.465	232.5913189
27.47	232.294209
27.475	231.9974986
27.48	231.701187
27.485	231.4052736
27.49	231.1097578
27.495	230.8146391
27.5	230.5199168
27.505	230.2255904
27.51	229.9316593
27.515	229.6381228
27.52	229.3449804
27.525	229.0522315
27.53	228.7598755
27.535	228.4679118
27.54	228.1763399
27.545	227.8851591
27.55	227.594369
27.555	227.3039688
27.56	227.013958
27.565	226.7243361
27.57	226.4351024
27.575	226.1462565
27.58	225.8577976
27.585	225.5697252
27.59	225.2820389
27.595	224.9947379
27.6	224.7078217
27.605	224.4212897
27.61	224.1351414
27.615	223.8493762
27.62	223.5639936
27.625	223.2789929
27.63	222.9943736
27.635	222.7101351
27.64	222.4262769
27.645	222.1427984
27.65	221.8596991
27.655	221.5769783
27.66	221.2946355
27.665	221.0126702
27.67	220.7310818
27.675	220.4498697
27.68	220.1690334
27.685	219.8885723
27.69	219.6084859
27.695	219.3287736
27.7	219.0494348
27.705	218.7704691
27.71	218.4918758
27.715	218.2136544
27.72	217.9358044
27.725	217.6583252
27.73	217.3812162
27.735	217.1044769
27.74	216.8281068
27.745	216.5521053
27.75	216.2764719
27.755	216.001206
27.76	215.7263072
27.765	215.4517747
27.77	215.1776081
27.775	214.903807
27.78	214.6303706
27.785	214.3572985
27.79	214.0845902
27.795	213.8122451
27.8	213.5402626
27.805	213.2686423
27.81	212.9973836
27.815	212.726486
27.82	212.4559489
27.825	212.1857718
27.83	211.9159542
27.835	211.6464956
27.84	211.3773954
27.845	211.108653
27.85	210.8402681
27.855	210.57224
27.86	210.3045682
27.865	210.0372521
27.87	209.7702914
27.875	209.5036854
27.88	209.2374336
27.885	208.9715356
27.89	208.7059907
27.895	208.4407984
27.9	208.1759584
27.905	207.9114699
27.91	207.6473326
27.915	207.3835459
27.92	207.1201092
27.925	206.8570221
27.93	206.5942841
27.935	206.3318946
27.94	206.0698531
27.945	205.8081592
27.95	205.5468123
27.955	205.2858118
27.96	205.0251574
27.965	204.7648485
27.97	204.5048845
27.975	204.245265
27.98	203.9859895
27.985	203.7270575
27.99	203.4684684
27.995	203.2102217
28	202.9523171
28.005	202.6947539
28.01	202.4375316
28.015	202.1806498
28.02	201.924108
28.025	201.6679056
28.03	201.4120422
28.035	201.1565173
28.04	200.9013304
28.045	200.6464809
28.05	200.3919684
28.055	200.1377925
28.06	199.8839525
28.065	199.630448
28.07	199.3772786
28.075	199.1244437
28.08	198.8719429
28.085	198.6197756
28.09	198.3679414
28.095	198.1164398
28.1	197.8652703
28.105	197.6144324
28.11	197.3639256
28.115	197.1137495
28.12	196.8639036
28.125	196.6143873
28.13	196.3652003
28.135	196.116342
28.14	195.8678119
28.145	195.6196096
28.15	195.3717346
28.155	195.1241864
28.16	194.8769646
28.165	194.6300686
28.17	194.383498
28.175	194.1372524
28.18	193.8913312
28.185	193.6457339
28.19	193.4004602
28.195	193.1555095
28.2	192.9108814
28.205	192.6665753
28.21	192.4225909
28.215	192.1789276
28.22	191.9355851
28.225	191.6925627
28.23	191.4498602
28.235	191.2074769
28.24	190.9654125
28.245	190.7236664
28.25	190.4822382
28.255	190.2411275
28.26	190.0003338
28.265	189.7598566
28.27	189.5196955
28.275	189.27985
28.28	189.0403196
28.285	188.801104
28.29	188.5622026
28.295	188.323615
28.3	188.0853407
28.305	187.8473792
28.31	187.6097303
28.315	187.3723932
28.32	187.1353677
28.325	186.8986533
28.33	186.6622495
28.335	186.4261559
28.34	186.190372
28.345	185.9548973
28.35	185.7197315
28.355	185.4848741
28.36	185.2503246
28.365	185.0160826
28.37	184.7821476
28.375	184.5485193
28.38	184.3151971
28.385	184.0821806
28.39	183.8494694
28.395	183.6170631
28.4	183.3849611
28.405	183.1531631
28.41	182.9216686
28.415	182.6904772
28.42	182.4595884
28.425	182.2290019
28.43	181.9987171
28.435	181.7687337
28.44	181.5390511
28.445	181.309669
28.45	181.080587
28.455	180.8518046
28.46	180.6233213
28.465	180.3951368
28.47	180.1672506
28.475	179.9396622
28.48	179.7123713
28.485	179.4853775
28.49	179.2586802
28.495	179.0322792
28.5	178.8061738
28.505	178.5803638
28.51	178.3548487
28.515	178.1296281
28.52	177.9047015
28.525	177.6800685
28.53	177.4557287
28.535	177.2316817
28.54	177.0079271
28.545	176.7844645
28.55	176.5612933
28.555	176.3384133
28.56	176.1158239
28.565	175.8935248
28.57	175.6715156
28.575	175.4497958
28.58	175.2283651
28.585	175.0072229
28.59	174.7863689
28.595	174.5658028
28.6	174.345524
28.605	174.1255321
28.61	173.9058268
28.615	173.6864077
28.62	173.4672743
28.625	173.2484261
28.63	173.029863
28.635	172.8115843
28.64	172.5935897
28.645	172.3758788
28.65	172.1584511
28.655	171.9413064
28.66	171.7244441
28.665	171.5078639
28.67	171.2915654
28.675	171.0755481
28.68	170.8598117
28.685	170.6443558
28.69	170.4291799
28.695	170.2142837
28.7	169.9996667
28.705	169.7853286
28.71	169.571269
28.715	169.3574874
28.72	169.1439836
28.725	168.9307569
28.73	168.7178072
28.735	168.505134
28.74	168.2927368
28.745	168.0806154
28.75	167.8687692
28.755	167.657198
28.76	167.4459012
28.765	167.2348786
28.77	167.0241298
28.775	166.8136543
28.78	166.6034517
28.785	166.3935218
28.79	166.183864
28.795	165.974478
28.8	165.7653634
28.805	165.5565199
28.81	165.3479469
28.815	165.1396443
28.82	164.9316115
28.825	164.7238482
28.83	164.516354
28.835	164.3091285
28.84	164.1021713
28.845	163.8954821
28.85	163.6890605
28.855	163.4829061
28.86	163.2770185
28.865	163.0713974
28.87	162.8660423
28.875	162.6609529
28.88	162.4561288
28.885	162.2515696
28.89	162.047275
28.895	161.8432445
28.9	161.6394779
28.905	161.4359747
28.91	161.2327345
28.915	161.0297571
28.92	160.8270419
28.925	160.6245887
28.93	160.4223971
28.935	160.2204666
28.94	160.018797
28.945	159.8173879
28.95	159.6162388
28.955	159.4153495
28.96	159.2147195
28.965	159.0143486
28.97	158.8142362
28.975	158.6143821
28.98	158.4147859
28.985	158.2154472
28.99	158.0163657
28.995	157.817541
29	157.6189728
29.005	157.4206606
29.01	157.2226041
29.015	157.024803
29.02	156.8272569
29.025	156.6299654
29.03	156.4329282
29.035	156.2361449
29.04	156.0396151
29.045	155.8433386
29.05	155.6473149
29.055	155.4515437
29.06	155.2560246
29.065	155.0607573
29.07	154.8657415
29.075	154.6709766
29.08	154.4764625
29.085	154.2821988
29.09	154.0881851
29.095	153.894421
29.1	153.7009062
29.105	153.5076404
29.11	153.3146232
29.115	153.1218543
29.12	152.9293332
29.125	152.7370597
29.13	152.5450334
29.135	152.353254
29.14	152.1617211
29.145	151.9704343
29.15	151.7793934
29.155	151.5885979
29.16	151.3980476
29.165	151.2077421
29.17	151.017681
29.175	150.827864
29.18	150.6382908
29.185	150.4489609
29.19	150.2598742
29.195	150.0710302
29.2	149.8824286
29.205	149.694069
29.21	149.5059511
29.215	149.3180747
29.22	149.1304392
29.225	148.9430445
29.23	148.7558901
29.235	148.5689757
29.24	148.382301
29.245	148.1958657
29.25	148.0096694
29.255	147.8237118
29.26	147.6379925
29.265	147.4525113
29.27	147.2672677
29.275	147.0822614
29.28	146.8974922
29.285	146.7129597
29.29	146.5286635
29.295	146.3446034
29.3	146.160779
29.305	145.9771899
29.31	145.7938358
29.315	145.6107165
29.32	145.4278315
29.325	145.2451806
29.33	145.0627635
29.335	144.8805797
29.34	144.698629
29.345	144.516911
29.35	144.3354255
29.355	144.1541721
29.36	143.9731504
29.365	143.7923602
29.37	143.6118012
29.375	143.4314729
29.38	143.2513752
29.385	143.0715076
29.39	142.8918698
29.395	142.7124616
29.4	142.5332826
29.405	142.3543324
29.41	142.1756108
29.415	141.9971175
29.42	141.8188521
29.425	141.6408144
29.43	141.4630039
29.435	141.2854204
29.44	141.1080636
29.445	140.9309331
29.45	140.7540287
29.455	140.5773499
29.46	140.4008966
29.465	140.2246684
29.47	140.048665
29.475	139.872886
29.48	139.6973312
29.485	139.5220003
29.49	139.3468929
29.495	139.1720087
29.5	138.9973474
29.505	138.8229087
29.51	138.6486924
29.515	138.474698
29.52	138.3009253
29.525	138.127374
29.53	137.9540437
29.535	137.7809342
29.54	137.6080452
29.545	137.4353763
29.55	137.2629273
29.555	137.0906978
29.56	136.9186875
29.565	136.7468962
29.57	136.5753235
29.575	136.4039692
29.58	136.2328328
29.585	136.0619142
29.59	135.891213
29.595	135.7207289
29.6	135.5504617
29.605	135.3804109
29.61	135.2105764
29.615	135.0409578
29.62	134.8715549
29.625	134.7023673
29.63	134.5333947
29.635	134.3646368
29.64	134.1960934
29.645	134.0277641
29.65	133.8596486
29.655	133.6917467
29.66	133.5240581
29.665	133.3565824
29.67	133.1893194
29.675	133.0222687
29.68	132.8554302
29.685	132.6888034
29.69	132.5223881
29.695	132.356184
29.7	132.1901909
29.705	132.0244083
29.71	131.8588361
29.715	131.693474
29.72	131.5283216
29.725	131.3633786
29.73	131.1986449
29.735	131.03412
29.74	130.8698037
29.745	130.7056957
29.75	130.5417958
29.755	130.3781036
29.76	130.2146189
29.765	130.0513413
29.77	129.8882706
29.775	129.7254066
29.78	129.5627488
29.785	129.4002971
29.79	129.2380511
29.795	129.0760106
29.8	128.9141753
29.805	128.7525449
29.81	128.5911191
29.815	128.4298976
29.82	128.2688802
29.825	128.1080666
29.83	127.9474565
29.835	127.7870496
29.84	127.6268457
29.845	127.4668444
29.85	127.3070456
29.855	127.1474488
29.86	126.9880539
29.865	126.8288605
29.87	126.6698684
29.875	126.5110773
29.88	126.3524869
29.885	126.194097
29.89	126.0359073
29.895	125.8779175
29.9	125.7201273
29.905	125.5625365
29.91	125.4051448
29.915	125.2479519
29.92	125.0909575
29.925	124.9341614
29.93	124.7775633
29.935	124.6211629
29.94	124.46496
29.945	124.3089543
29.95	124.1531455
29.955	123.9975333
29.96	123.8421176
29.965	123.6868979
29.97	123.5318741
29.975	123.3770459
29.98	123.222413
29.985	123.0679751
29.99	122.9137321
29.995	122.7596835
30	122.6058292
30.005	122.4521689
30.01	122.2987023
30.015	122.1454291
30.02	121.9923491
30.025	121.8394621
30.03	121.6867678
30.035	121.5342658
30.04	121.381956
30.045	121.2298381
30.05	121.0779117
30.055	120.9261768
30.06	120.7746329
30.065	120.6232799
30.07	120.4721175
30.075	120.3211453
30.08	120.1703633
30.085	120.019771
30.09	119.8693683
30.095	119.7191549
30.1	119.5691305
30.105	119.4192948
30.11	119.2696477
30.115	119.1201889
30.12	118.970918
30.125	118.8218349
30.13	118.6729393
30.135	118.524231
30.14	118.3757096
30.145	118.2273749
30.15	118.0792268
30.155	117.9312648
30.16	117.7834888
30.165	117.6358986
30.17	117.4884938
30.175	117.3412742
30.18	117.1942396
30.185	117.0473897
30.19	116.9007243
30.195	116.7542431
30.2	116.6079459
30.205	116.4618323
30.21	116.3159023
30.215	116.1701555
30.22	116.0245916
30.225	115.8792105
30.23	115.7340118
30.235	115.5889954
30.24	115.4441609
30.245	115.2995082
30.25	115.155037
30.255	115.010747
30.26	114.866638
30.265	114.7227098
30.27	114.5789621
30.275	114.4353947
30.28	114.2920073
30.285	114.1487996
30.29	114.0057716
30.295	113.8629228
30.3	113.720253
30.305	113.5777621
30.31	113.4354498
30.315	113.2933157
30.32	113.1513598
30.325	113.0095817
30.33	112.8679813
30.335	112.7265582
30.34	112.5853122
30.345	112.4442431
30.35	112.3033507
30.355	112.1626347
30.36	112.0220949
30.365	111.881731
30.37	111.7415429
30.375	111.6015302
30.38	111.4616927
30.385	111.3220302
30.39	111.1825425
30.395	111.0432293
30.4	110.9040904
30.405	110.7651256
30.41	110.6263346
30.415	110.4877172
30.42	110.3492731
30.425	110.2110021
30.43	110.0729041
30.435	109.9349787
30.44	109.7972257
30.445	109.6596449
30.45	109.5222361
30.455	109.384999
30.46	109.2479335
30.465	109.1110392
30.47	108.9743159
30.475	108.8377634
30.48	108.7013816
30.485	108.5651701
30.49	108.4291287
30.495	108.2932572
30.5	108.1575553
30.505	108.022023
30.51	107.8866598
30.515	107.7514656
30.52	107.6164402
30.525	107.4815833
30.53	107.3468948
30.535	107.2123743
30.54	107.0780217
30.545	106.9438367
30.55	106.8098191
30.555	106.6759687
30.56	106.5422853
30.565	106.4087686
30.57	106.2754185
30.575	106.1422346
30.58	106.0092168
30.585	105.8763648
30.59	105.7436785
30.595	105.6111576
30.6	105.4788019
30.605	105.3466111
30.61	105.2145851
30.615	105.0827236
30.62	104.9510264
30.625	104.8194933
30.63	104.6881241
30.635	104.5569185
30.64	104.4258764
30.645	104.2949974
30.65	104.1642815
30.655	104.0337283
30.66	103.9033377
30.665	103.7731095
30.67	103.6430433
30.675	103.5131391
30.68	103.3833966
30.685	103.2538155
30.69	103.1243958
30.695	102.995137
30.7	102.8660391
30.705	102.7371018
30.71	102.608325
30.715	102.4797083
30.72	102.3512516
30.725	102.2229547
30.73	102.0948173
30.735	101.9668393
30.74	101.8390204
30.745	101.7113604
30.75	101.5838592
30.755	101.4565164
30.76	101.3293319
30.765	101.2023055
30.77	101.075437
30.775	100.9487261
30.78	100.8221727
30.785	100.6957765
30.79	100.5695373
30.795	100.443455
30.8	100.3175293
30.805	100.19176
30.81	100.0661468
30.815	99.94068971
30.82	99.81538836
30.825	99.6902426
30.83	99.5652522
30.835	99.44041697
30.84	99.3157367
30.845	99.19121119
30.85	99.06684023
30.855	98.94262361
30.86	98.81856113
30.865	98.69465258
30.87	98.57089777
30.875	98.44729649
30.88	98.32384854
30.885	98.20055371
30.89	98.0774118
30.895	97.9544226
30.9	97.83158593
30.905	97.70890156
30.91	97.58636931
30.915	97.46398898
30.92	97.34176035
30.925	97.21968323
30.93	97.09775743
30.935	96.97598273
30.94	96.85435895
30.945	96.73288588
30.95	96.61156332
30.955	96.49039108
30.96	96.36936895
30.965	96.24849674
30.97	96.12777424
30.975	96.00720128
30.98	95.88677763
30.985	95.76650311
30.99	95.64637753
30.995	95.52640068
31	95.40657237
31.005	95.2868924
31.01	95.16736058
31.015	95.04797671
31.02	94.9287406
31.025	94.80965205
31.03	94.69071088
31.035	94.57191687
31.04	94.45326985
31.045	94.33476961
31.05	94.21641597
31.055	94.09820873
31.06	93.9801477
31.065	93.86223269
31.07	93.7444635
31.075	93.62683994
31.08	93.50936182
31.085	93.39202895
31.09	93.27484115
31.095	93.15779821
31.1	93.04089995
31.105	92.92414617
31.11	92.8075367
31.115	92.69107133
31.12	92.57474989
31.125	92.45857217
31.13	92.342538
31.135	92.22664718
31.14	92.11089952
31.145	91.99529485
31.15	91.87983296
31.155	91.76451368
31.16	91.64933681
31.165	91.53430217
31.17	91.41940958
31.175	91.30465884
31.18	91.19004977
31.185	91.07558219
31.19	90.9612559
31.195	90.84707074
31.2	90.7330265
31.205	90.619123
31.21	90.50536007
31.215	90.39173752
31.22	90.27825516
31.225	90.1649128
31.23	90.05171028
31.235	89.9386474
31.24	89.82572398
31.245	89.71293984
31.25	89.6002948
31.255	89.48778867
31.26	89.37542128
31.265	89.26319243
31.27	89.15110196
31.275	89.03914968
31.28	88.92733541
31.285	88.81565897
31.29	88.70412018
31.295	88.59271886
31.3	88.48145483
31.305	88.37032791
31.31	88.25933792
31.315	88.14848469
31.32	88.03776803
31.325	87.92718777
31.33	87.81674373
31.335	87.70643573
31.34	87.5962636
31.345	87.48622716
31.35	87.37632622
31.355	87.26656062
31.36	87.15693018
31.365	87.04743472
31.37	86.93807406
31.375	86.82884804
31.38	86.71975647
31.385	86.61079918
31.39	86.501976
31.395	86.39328675
31.4	86.28473125
31.405	86.17630934
31.41	86.06802083
31.415	85.95986557
31.42	85.85184336
31.425	85.74395404
31.43	85.63619745
31.435	85.52857339
31.44	85.42108171
31.445	85.31372222
31.45	85.20649477
31.455	85.09939917
31.46	84.99243526
31.465	84.88560286
31.47	84.77890181
31.475	84.67233193
31.48	84.56589305
31.485	84.45958501
31.49	84.35340763
31.495	84.24736074
31.5	84.14144418
31.505	84.03565777
31.51	83.93000135
31.515	83.82447476
31.52	83.71907781
31.525	83.61381034
31.53	83.50867219
31.535	83.40366318
31.54	83.29878316
31.545	83.19403195
31.55	83.08940938
31.555	82.9849153
31.56	82.88054953
31.565	82.7763119
31.57	82.67220226
31.575	82.56822043
31.58	82.46436625
31.585	82.36063956
31.59	82.25704019
31.595	82.15356798
31.6	82.05022276
31.605	81.94700436
31.61	81.84391263
31.615	81.7409474
31.62	81.6381085
31.625	81.53539578
31.63	81.43280907
31.635	81.33034821
31.64	81.22801303
31.645	81.12580338
31.65	81.02371908
31.655	80.92175999
31.66	80.81992593
31.665	80.71821676
31.67	80.61663229
31.675	80.51517238
31.68	80.41383687
31.685	80.31262559
31.69	80.21153838
31.695	80.11057509
31.7	80.00973555
31.705	79.9090196
31.71	79.80842709
31.715	79.70795786
31.72	79.60761174
31.725	79.50738859
31.73	79.40728823
31.735	79.30731052
31.74	79.20745529
31.745	79.10772239
31.75	79.00811166
31.755	78.90862295
31.76	78.80925609
31.765	78.71001092
31.77	78.61088731
31.775	78.51188507
31.78	78.41300407
31.785	78.31424415
31.79	78.21560514
31.795	78.1170869
31.8	78.01868926
31.805	77.92041208
31.81	77.8222552
31.815	77.72421847
31.82	77.62630172
31.825	77.52850481
31.83	77.43082759
31.835	77.33326989
31.84	77.23583157
31.845	77.13851248
31.85	77.04131245
31.855	76.94423134
31.86	76.84726899
31.865	76.75042526
31.87	76.65369999
31.875	76.55709303
31.88	76.46060422
31.885	76.36423342
31.89	76.26798048
31.895	76.17184524
31.9	76.07582755
31.905	75.97992727
31.91	75.88414423
31.915	75.7884783
31.92	75.69292933
31.925	75.59749715
31.93	75.50218163
31.935	75.40698261
31.94	75.31189995
31.945	75.2169335
31.95	75.1220831
31.955	75.02734861
31.96	74.93272989
31.965	74.83822677
31.97	74.74383913
31.975	74.6495668
31.98	74.55540964
31.985	74.46136751
31.99	74.36744025
31.995	74.27362773
32	74.17992979
32.005	74.08634629
32.01	73.99287708
32.015	73.89952201
32.02	73.80628095
32.025	73.71315374
32.03	73.62014024
32.035	73.5272403
32.04	73.43445379
32.045	73.34178055
32.05	73.24922044
32.055	73.15677332
32.06	73.06443904
32.065	72.97221747
32.07	72.88010844
32.075	72.78811183
32.08	72.69622749
32.085	72.60445528
32.09	72.51279505
32.095	72.42124666
32.1	72.32980997
32.105	72.23848484
32.11	72.14727112
32.115	72.05616867
32.12	71.96517736
32.125	71.87429704
32.13	71.78352756
32.135	71.6928688
32.14	71.6023206
32.145	71.51188283
32.15	71.42155535
32.155	71.33133801
32.16	71.24123069
32.165	71.15123322
32.17	71.06134549
32.175	70.97156734
32.18	70.88189865
32.185	70.79233926
32.19	70.70288905
32.195	70.61354787
32.2	70.52431558
32.205	70.43519206
32.21	70.34617715
32.215	70.25727072
32.22	70.16847263
32.225	70.07978276
32.23	69.99120095
32.235	69.90272707
32.24	69.81436099
32.245	69.72610257
32.25	69.63795167
32.255	69.54990816
32.26	69.46197189
32.265	69.37414275
32.27	69.28642058
32.275	69.19880525
32.28	69.11129664
32.285	69.02389459
32.29	68.93659899
32.295	68.84940969
32.3	68.76232656
32.305	68.67534947
32.31	68.58847827
32.315	68.50171285
32.32	68.41505306
32.325	68.32849877
32.33	68.24204984
32.335	68.15570615
32.34	68.06946756
32.345	67.98333394
32.35	67.89730516
32.355	67.81138108
32.36	67.72556156
32.365	67.63984649
32.37	67.55423573
32.375	67.46872914
32.38	67.3833266
32.385	67.29802797
32.39	67.21283312
32.395	67.12774192
32.4	67.04275425
32.405	66.95786996
32.41	66.87308893
32.415	66.78841104
32.42	66.70383614
32.425	66.61936411
32.43	66.53499482
32.435	66.45072815
32.44	66.36656395
32.445	66.28250211
32.45	66.19854249
32.455	66.11468497
32.46	66.03092941
32.465	65.9472757
32.47	65.86372369
32.475	65.78027326
32.48	65.69692429
32.485	65.61367665
32.49	65.5305302
32.495	65.44748483
32.5	65.3645404
32.505	65.28169679
32.51	65.19895388
32.515	65.11631152
32.52	65.03376961
32.525	64.95132801
32.53	64.86898659
32.535	64.78674524
32.54	64.70460382
32.545	64.62256221
32.55	64.54062029
32.555	64.45877792
32.56	64.37703499
32.565	64.29539137
32.57	64.21384694
32.575	64.13240156
32.58	64.05105512
32.585	63.9698075
32.59	63.88865856
32.595	63.80760819
32.6	63.72665626
32.605	63.64580264
32.61	63.56504722
32.615	63.48438988
32.62	63.40383048
32.625	63.32336891
32.63	63.24300504
32.635	63.16273875
32.64	63.08256992
32.645	63.00249843
32.65	62.92252416
32.655	62.84264698
32.66	62.76286677
32.665	62.68318341
32.67	62.60359678
32.675	62.52410676
32.68	62.44471323
32.685	62.36541607
32.69	62.28621515
32.695	62.20711036
32.7	62.12810158
32.705	62.04918868
32.71	61.97037155
32.715	61.89165007
32.72	61.81302412
32.725	61.73449357
32.73	61.65605831
32.735	61.57771823
32.74	61.49947319
32.745	61.42132309
32.75	61.3432678
32.755	61.26530721
32.76	61.1874412
32.765	61.10966964
32.77	61.03199243
32.775	60.95440945
32.78	60.87692057
32.785	60.79952568
32.79	60.72222466
32.795	60.6450174
32.8	60.56790378
32.805	60.49088368
32.81	60.41395699
32.815	60.33712359
32.82	60.26038336
32.825	60.18373618
32.83	60.10718195
32.835	60.03072055
32.84	59.95435185
32.845	59.87807575
32.85	59.80189213
32.855	59.72580087
32.86	59.64980186
32.865	59.57389499
32.87	59.49808014
32.875	59.42235719
32.88	59.34672604
32.885	59.27118656
32.89	59.19573865
32.895	59.12038219
32.9	59.04511706
32.905	58.96994316
32.91	58.89486037
32.915	58.81986857
32.92	58.74496765
32.925	58.67015751
32.93	58.59543802
32.935	58.52080908
32.94	58.44627058
32.945	58.37182239
32.95	58.29746441
32.955	58.22319653
32.96	58.14901863
32.965	58.07493061
32.97	58.00093235
32.975	57.92702374
32.98	57.85320467
32.985	57.77947503
32.99	57.7058347
32.995	57.63228359
33	57.55882157
33.005	57.48544853
33.01	57.41216438
33.015	57.33896898
33.02	57.26586225
33.025	57.19284406
33.03	57.1199143
33.035	57.04707288
33.04	56.97431967
33.045	56.90165457
33.05	56.82907747
33.055	56.75658826
33.06	56.68418684
33.065	56.61187308
33.07	56.5396469
33.075	56.46750816
33.08	56.39545678
33.085	56.32349264
33.09	56.25161563
33.095	56.17982565
33.1	56.10812259
33.105	56.03650633
33.11	55.96497678
33.115	55.89353383
33.12	55.82217736
33.125	55.75090728
33.13	55.67972347
33.135	55.60862583
33.14	55.53761426
33.145	55.46668864
33.15	55.39584888
33.155	55.32509485
33.16	55.25442647
33.165	55.18384362
33.17	55.1133462
33.175	55.0429341
33.18	54.97260722
33.185	54.90236545
33.19	54.83220869
33.195	54.76213684
33.2	54.69214978
33.205	54.62224741
33.21	54.55242964
33.215	54.48269635
33.22	54.41304744
33.225	54.34348281
33.23	54.27400235
33.235	54.20460596
33.24	54.13529354
33.245	54.06606498
33.25	53.99692018
33.255	53.92785904
33.26	53.85888146
33.265	53.78998732
33.27	53.72117653
33.275	53.65244899
33.28	53.5838046
33.285	53.51524324
33.29	53.44676483
33.295	53.37836925
33.3	53.31005641
33.305	53.24182621
33.31	53.17367853
33.315	53.10561329
33.32	53.03763038
33.325	52.9697297
33.33	52.90191114
33.335	52.83417462
33.34	52.76652002
33.345	52.69894724
33.35	52.6314562
33.355	52.56404677
33.36	52.49671888
33.365	52.42947241
33.37	52.36230726
33.375	52.29522334
33.38	52.22822055
33.385	52.16129878
33.39	52.09445794
33.395	52.02769793
33.4	51.96101865
33.405	51.89442
33.41	51.82790188
33.415	51.76146419
33.42	51.69510684
33.425	51.62882973
33.43	51.56263275
33.435	51.49651581
33.44	51.43047881
33.445	51.36452166
33.45	51.29864426
33.455	51.2328465
33.46	51.16712829
33.465	51.10148954
33.47	51.03593014
33.475	50.97045001
33.48	50.90504904
33.485	50.83972713
33.49	50.77448419
33.495	50.70932013
33.5	50.64423484
33.505	50.57922823
33.51	50.5143002
33.515	50.44945067
33.52	50.38467952
33.525	50.31998668
33.53	50.25537203
33.535	50.19083549
33.54	50.12637696
33.545	50.06199634
33.55	49.99769354
33.555	49.93346847
33.56	49.86932103
33.565	49.80525112
33.57	49.74125865
33.575	49.67734353
33.58	49.61350566
33.585	49.54974495
33.59	49.4860613
33.595	49.42245463
33.6	49.35892482
33.605	49.2954718
33.61	49.23209547
33.615	49.16879573
33.62	49.1055725
33.625	49.04242567
33.63	48.97935516
33.635	48.91636087
33.64	48.85344271
33.645	48.79060059
33.65	48.72783441
33.655	48.66514409
33.66	48.60252952
33.665	48.53999062
33.67	48.4775273
33.675	48.41513946
33.68	48.35282702
33.685	48.29058987
33.69	48.22842793
33.695	48.16634111
33.7	48.10432931
33.705	48.04239245
33.71	47.98053043
33.715	47.91874316
33.72	47.85703056
33.725	47.79539253
33.73	47.73382897
33.735	47.67233981
33.74	47.61092495
33.745	47.54958429
33.75	47.48831776
33.755	47.42712525
33.76	47.36600668
33.765	47.30496197
33.77	47.24399101
33.775	47.18309372
33.78	47.12227002
33.785	47.0615198
33.79	47.00084299
33.795	46.94023949
33.8	46.87970922
33.805	46.81925208
33.81	46.75886799
33.815	46.69855686
33.82	46.6383186
33.825	46.57815312
33.83	46.51806033
33.835	46.45804015
33.84	46.39809249
33.845	46.33821726
33.85	46.27841437
33.855	46.21868373
33.86	46.15902527
33.865	46.09943888
33.87	46.03992448
33.875	45.98048199
33.88	45.92111132
33.885	45.86181237
33.89	45.80258508
33.895	45.74342934
33.9	45.68434507
33.905	45.62533219
33.91	45.5663906
33.915	45.50752023
33.92	45.44872098
33.925	45.38999278
33.93	45.33133553
33.935	45.27274914
33.94	45.21423354
33.945	45.15578864
33.95	45.09741435
33.955	45.03911059
33.96	44.98087727
33.965	44.9227143
33.97	44.8646216
33.975	44.8065991
33.98	44.74864669
33.985	44.6907643
33.99	44.63295185
33.995	44.57520924
34	44.5175364
34.005	44.45993323
34.01	44.40239966
34.015	44.34493561
34.02	44.28754098
34.025	44.2302157
34.03	44.17295967
34.035	44.11577283
34.04	44.05865508
34.045	44.00160634
34.05	43.94462652
34.055	43.88771555
34.06	43.83087334
34.065	43.77409981
34.07	43.71739488
34.075	43.66075846
34.08	43.60419047
34.085	43.54769083
34.09	43.49125945
34.095	43.43489626
34.1	43.37860116
34.105	43.32237409
34.11	43.26621496
34.115	43.21012368
34.12	43.15410018
34.125	43.09814437
34.13	43.04225617
34.135	42.9864355
34.14	42.93068228
34.145	42.87499643
34.15	42.81937786
34.155	42.7638265
34.16	42.70834227
34.165	42.65292507
34.17	42.59757485
34.175	42.5422915
34.18	42.48707496
34.185	42.43192515
34.19	42.37684197
34.195	42.32182536
34.2	42.26687523
34.205	42.2119915
34.21	42.1571741
34.215	42.10242294
34.22	42.04773794
34.225	41.99311903
34.23	41.93856612
34.235	41.88407914
34.24	41.829658
34.245	41.77530263
34.25	41.72101296
34.255	41.66678889
34.26	41.61263035
34.265	41.55853727
34.27	41.50450956
34.275	41.45054715
34.28	41.39664995
34.285	41.3428179
34.29	41.2890509
34.295	41.23534889
34.3	41.18171179
34.305	41.12813951
34.31	41.07463198
34.315	41.02118913
34.32	40.96781087
34.325	40.91449713
34.33	40.86124783
34.335	40.80806289
34.34	40.75494224
34.345	40.7018858
34.35	40.64889349
34.355	40.59596524
34.36	40.54310096
34.365	40.49030059
34.37	40.43756405
34.375	40.38489125
34.38	40.33228213
34.385	40.27973661
34.39	40.22725461
34.395	40.17483605
34.4	40.12248086
34.405	40.07018897
34.41	40.01796029
34.415	39.96579476
34.42	39.9136923
34.425	39.86165282
34.43	39.80967627
34.435	39.75776255
34.44	39.7059116
34.445	39.65412335
34.45	39.60239771
34.455	39.55073461
34.46	39.49913398
34.465	39.44759574
34.47	39.39611982
34.475	39.34470614
34.48	39.29335463
34.485	39.24206522
34.49	39.19083783
34.495	39.13967238
34.5	39.08856881
34.505	39.03752704
34.51	38.98654699
34.515	38.9356286
34.52	38.88477179
34.525	38.83397648
34.53	38.7832426
34.535	38.73257008
34.54	38.68195885
34.545	38.63140882
34.55	38.58091994
34.555	38.53049213
34.56	38.48012531
34.565	38.42981941
34.57	38.37957436
34.575	38.32939008
34.58	38.27926651
34.585	38.22920358
34.59	38.1792012
34.595	38.1292593
34.6	38.07937783
34.605	38.0295567
34.61	37.97979583
34.615	37.93009517
34.62	37.88045464
34.625	37.83087416
34.63	37.78135367
34.635	37.7318931
34.64	37.68249236
34.645	37.6331514
34.65	37.58387014
34.655	37.53464851
34.66	37.48548643
34.665	37.43638385
34.67	37.38734068
34.675	37.33835686
34.68	37.28943231
34.685	37.24056697
34.69	37.19176076
34.695	37.14301362
34.7	37.09432548
34.705	37.04569626
34.71	36.99712589
34.715	36.94861431
34.72	36.90016145
34.725	36.85176723
34.73	36.80343158
34.735	36.75515444
34.74	36.70693574
34.745	36.65877541
34.75	36.61067337
34.755	36.56262957
34.76	36.51464392
34.765	36.46671637
34.77	36.41884683
34.775	36.37103525
34.78	36.32328156
34.785	36.27558568
34.79	36.22794755
34.795	36.18036709
34.8	36.13284425
34.805	36.08537895
34.81	36.03797112
34.815	35.9906207
34.82	35.94332762
34.825	35.89609181
34.83	35.8489132
34.835	35.80179173
34.84	35.75472732
34.845	35.70771991
34.85	35.66076943
34.855	35.61387582
34.86	35.567039
34.865	35.52025891
34.87	35.47353549
34.875	35.42686866
34.88	35.38025836
34.885	35.33370452
34.89	35.28720708
34.895	35.24076596
34.9	35.19438111
34.905	35.14805245
34.91	35.10177992
34.915	35.05556345
34.92	35.00940298
34.925	34.96329843
34.93	34.91724975
34.935	34.87125687
34.94	34.82531972
34.945	34.77943824
34.95	34.73361235
34.955	34.687842
34.96	34.64212712
34.965	34.59646764
34.97	34.55086349
34.975	34.50531462
34.98	34.45982096
34.985	34.41438244
34.99	34.36899899
34.995	34.32367056
35	34.27839707
35.005	34.23317846
35.01	34.18801468
35.015	34.14290564
35.02	34.09785129
35.025	34.05285156
35.03	34.0079064
35.035	33.96301572
35.04	33.91817948
35.045	33.8733976
35.05	33.82867003
35.055	33.78399669
35.06	33.73937752
35.065	33.69481247
35.07	33.65030146
35.075	33.60584443
35.08	33.56144132
35.085	33.51709207
35.09	33.47279661
35.095	33.42855487
35.1	33.3843668
35.105	33.34023233
35.11	33.2961514
35.115	33.25212395
35.12	33.20814991
35.125	33.16422921
35.13	33.12036181
35.135	33.07654763
35.14	33.0327866
35.145	32.98907868
35.15	32.94542379
35.155	32.90182188
35.16	32.85827288
35.165	32.81477673
35.17	32.77133336
35.175	32.72794272
35.18	32.68460474
35.185	32.64131936
35.19	32.59808652
35.195	32.55490616
35.2	32.51177821
35.205	32.46870262
35.21	32.42567931
35.215	32.38270824
35.22	32.33978934
35.225	32.29692254
35.23	32.25410779
35.235	32.21134503
35.24	32.16863419
35.245	32.12597521
35.25	32.08336804
35.255	32.04081261
35.26	31.99830886
35.265	31.95585672
35.27	31.91345615
35.275	31.87110708
35.28	31.82880944
35.285	31.78656318
35.29	31.74436824
35.295	31.70222455
35.3	31.66013206
35.305	31.61809071
35.31	31.57610044
35.315	31.53416118
35.32	31.49227288
35.325	31.45043548
35.33	31.40864891
35.335	31.36691312
35.34	31.32522805
35.345	31.28359364
35.35	31.24200982
35.355	31.20047655
35.36	31.15899376
35.365	31.11756139
35.37	31.07617938
35.375	31.03484767
35.38	30.99356621
35.385	30.95233493
35.39	30.91115378
35.395	30.8700227
35.4	30.82894162
35.405	30.7879105
35.41	30.74692927
35.415	30.70599787
35.42	30.66511625
35.425	30.62428434
35.43	30.58350209
35.435	30.54276944
35.44	30.50208633
35.445	30.46145271
35.45	30.42086851
35.455	30.38033368
35.46	30.33984816
35.465	30.2994119
35.47	30.25902483
35.475	30.21868689
35.48	30.17839804
35.485	30.13815821
35.49	30.09796734
35.495	30.05782538
35.5	30.01773227
35.505	29.97768796
35.51	29.93769238
35.515	29.89774548
35.52	29.8578472
35.525	29.81799749
35.53	29.77819629
35.535	29.73844353
35.54	29.69873918
35.545	29.65908316
35.55	29.61947542
35.555	29.57991591
35.56	29.54040457
35.565	29.50094134
35.57	29.46152617
35.575	29.42215899
35.58	29.38283977
35.585	29.34356843
35.59	29.30434492
35.595	29.26516919
35.6	29.22604118
35.605	29.18696083
35.61	29.1479281
35.615	29.10894291
35.62	29.07000523
35.625	29.03111499
35.63	28.99227213
35.635	28.95347661
35.64	28.91472836
35.645	28.87602734
35.65	28.83737348
35.655	28.79876673
35.66	28.76020704
35.665	28.72169434
35.67	28.6832286
35.675	28.64480975
35.68	28.60643773
35.685	28.5681125
35.69	28.52983399
35.695	28.49160216
35.7	28.45341694
35.705	28.41527829
35.71	28.37718615
35.715	28.33914046
35.72	28.30114118
35.725	28.26318824
35.73	28.2252816
35.735	28.1874212
35.74	28.14960698
35.745	28.11183889
35.75	28.07411688
35.755	28.0364409
35.76	27.99881088
35.765	27.96122678
35.77	27.92368855
35.775	27.88619612
35.78	27.84874945
35.785	27.81134849
35.79	27.77399317
35.795	27.73668346
35.8	27.69941928
35.805	27.6622006
35.81	27.62502735
35.815	27.58789949
35.82	27.55081696
35.825	27.51377971
35.83	27.47678768
35.835	27.43984083
35.84	27.4029391
35.845	27.36608244
35.85	27.32927079
35.855	27.29250411
35.86	27.25578234
35.865	27.21910542
35.87	27.18247332
35.875	27.14588597
35.88	27.10934332
35.885	27.07284532
35.89	27.03639192
35.895	26.99998307
35.9	26.96361871
35.905	26.9272988
35.91	26.89102328
35.915	26.85479209
35.92	26.8186052
35.925	26.78246254
35.93	26.74636407
35.935	26.71030973
35.94	26.67429947
35.945	26.63833325
35.95	26.602411
35.955	26.56653269
35.96	26.53069825
35.965	26.49490764
35.97	26.45916081
35.975	26.4234577
35.98	26.38779826
35.985	26.35218245
35.99	26.31661021
35.995	26.28108149
36	26.24559625
36.005	26.21015442
36.01	26.17475597
36.015	26.13940084
36.02	26.10408898
36.025	26.06882033
36.03	26.03359486
36.035	25.99841251
36.04	25.96327322
36.045	25.92817696
36.05	25.89312366
36.055	25.85811329
36.06	25.82314578
36.065	25.7882211
36.07	25.75333918
36.075	25.71849998
36.08	25.68370346
36.085	25.64894956
36.09	25.61423823
36.095	25.57956942
36.1	25.54494308
36.105	25.51035917
36.11	25.47581764
36.115	25.44131843
36.12	25.40686149
36.125	25.37244679
36.13	25.33807426
36.135	25.30374386
36.14	25.26945554
36.145	25.23520926
36.15	25.20100496
36.155	25.16684259
36.16	25.13272211
36.165	25.09864346
36.17	25.06460661
36.175	25.03061149
36.18	24.99665807
36.185	24.96274629
36.19	24.9288761
36.195	24.89504747
36.2	24.86126033
36.205	24.82751464
36.21	24.79381036
36.215	24.76014743
36.22	24.7265258
36.225	24.69294544
36.23	24.65940629
36.235	24.6259083
36.24	24.59245143
36.245	24.55903562
36.25	24.52566084
36.255	24.49232703
36.26	24.45903415
36.265	24.42578214
36.27	24.39257096
36.275	24.35940057
36.28	24.32627092
36.285	24.29318195
36.29	24.26013363
36.295	24.2271259
36.3	24.19415872
36.305	24.16123204
36.31	24.12834581
36.315	24.0955
36.32	24.06269454
36.325	24.0299294
36.33	23.99720452
36.335	23.96451987
36.34	23.93187539
36.345	23.89927104
36.35	23.86670676
36.355	23.83418253
36.36	23.80169828
36.365	23.76925398
36.37	23.73684957
36.375	23.70448501
36.38	23.67216025
36.385	23.63987525
36.39	23.60762997
36.395	23.57542435
36.4	23.54325835
36.405	23.51113192
36.41	23.47904503
36.415	23.44699761
36.42	23.41498964
36.425	23.38302105
36.43	23.35109181
36.435	23.31920187
36.44	23.28735119
36.445	23.25553972
36.45	23.22376741
36.455	23.19203421
36.46	23.1603401
36.465	23.12868501
36.47	23.09706891
36.475	23.06549174
36.48	23.03395347
36.485	23.00245404
36.49	22.97099342
36.495	22.93957156
36.5	22.90818842
36.505	22.87684394
36.51	22.84553809
36.515	22.81427081
36.52	22.78304208
36.525	22.75185183
36.53	22.72070003
36.535	22.68958663
36.54	22.65851159
36.545	22.62747487
36.55	22.59647641
36.555	22.56551618
36.56	22.53459413
36.565	22.50371022
36.57	22.4728644
36.575	22.44205662
36.58	22.41128686
36.585	22.38055505
36.59	22.34986116
36.595	22.31920515
36.6	22.28858696
36.605	22.25800656
36.61	22.2274639
36.615	22.19695894
36.62	22.16649164
36.625	22.13606195
36.63	22.10566983
36.635	22.07531523
36.64	22.04499811
36.645	22.01471844
36.65	21.98447616
36.655	21.95427123
36.66	21.92410361
36.665	21.89397325
36.67	21.86388012
36.675	21.83382417
36.68	21.80380536
36.685	21.77382364
36.69	21.74387897
36.695	21.71397131
36.7	21.68410062
36.705	21.65426685
36.71	21.62446996
36.715	21.59470992
36.72	21.56498666
36.725	21.53530016
36.73	21.50565038
36.735	21.47603726
36.74	21.44646076
36.745	21.41692086
36.75	21.38741749
36.755	21.35795062
36.76	21.32852021
36.765	21.29912622
36.77	21.2697686
36.775	21.24044732
36.78	21.21116232
36.785	21.18191358
36.79	21.15270103
36.795	21.12352466
36.8	21.0943844
36.805	21.06528023
36.81	21.0362121
36.815	21.00717997
36.82	20.97818379
36.825	20.94922353
36.83	20.92029914
36.835	20.89141059
36.84	20.86255783
36.845	20.83374082
36.85	20.80495951
36.855	20.77621388
36.86	20.74750387
36.865	20.71882945
36.87	20.69019057
36.875	20.6615872
36.88	20.63301928
36.885	20.6044868
36.89	20.57598969
36.895	20.54752792
36.9	20.51910145
36.905	20.49071025
36.91	20.46235426
36.915	20.43403344
36.92	20.40574777
36.925	20.37749719
36.93	20.34928167
36.935	20.32110117
36.94	20.29295564
36.945	20.26484505
36.95	20.23676935
36.955	20.20872851
36.96	20.18072249
36.965	20.15275123
36.97	20.12481472
36.975	20.0969129
36.98	20.06904573
36.985	20.04121318
36.99	20.0134152
36.995	19.98565176
37	19.95792282
37.005	19.93022833
37.01	19.90256826
37.015	19.87494257
37.02	19.84735121
37.025	19.81979415
37.03	19.79227135
37.035	19.76478276
37.04	19.73732836
37.045	19.7099081
37.05	19.68252194
37.055	19.65516984
37.06	19.62785176
37.065	19.60056766
37.07	19.57331751
37.075	19.54610127
37.08	19.51891889
37.085	19.49177034
37.09	19.46465557
37.095	19.43757456
37.1	19.41052725
37.105	19.38351362
37.11	19.35653362
37.115	19.32958722
37.12	19.30267437
37.125	19.27579504
37.13	19.24894918
37.135	19.22213677
37.14	19.19535776
37.145	19.16861211
37.15	19.14189978
37.155	19.11522075
37.16	19.08857496
37.165	19.06196238
37.17	19.03538297
37.175	19.0088367
37.18	18.98232352
37.185	18.9558434
37.19	18.92939629
37.195	18.90298217
37.2	18.876601
37.205	18.85025272
37.21	18.82393732
37.215	18.79765475
37.22	18.77140497
37.225	18.74518794
37.23	18.71900363
37.235	18.692852
37.24	18.66673301
37.245	18.64064662
37.25	18.6145928
37.255	18.58857152
37.26	18.56258272
37.265	18.53662638
37.27	18.51070245
37.275	18.4848109
37.28	18.4589517
37.285	18.4331248
37.29	18.40733017
37.295	18.38156777
37.3	18.35583757
37.305	18.33013952
37.31	18.3044736
37.315	18.27883975
37.32	18.25323796
37.325	18.22766817
37.33	18.20213036
37.335	18.17662448
37.34	18.1511505
37.345	18.12570838
37.35	18.10029809
37.355	18.07491959
37.36	18.04957284
37.365	18.02425781
37.37	17.99897446
37.375	17.97372275
37.38	17.94850265
37.385	17.92331412
37.39	17.89815713
37.395	17.87303163
37.4	17.8479376
37.405	17.82287499
37.41	17.79784377
37.415	17.7728439
37.42	17.74787536
37.425	17.72293809
37.43	17.69803207
37.435	17.67315726
37.44	17.64831363
37.445	17.62350113
37.45	17.59871974
37.455	17.57396941
37.46	17.54925011
37.465	17.52456181
37.47	17.49990447
37.475	17.47527805
37.48	17.45068252
37.485	17.42611785
37.49	17.40158399
37.495	17.37708091
37.5	17.35260859
37.505	17.32816697
37.51	17.30375603
37.515	17.27937573
37.52	17.25502604
37.525	17.23070691
37.53	17.20641833
37.535	17.18216024
37.54	17.15793262
37.545	17.13373543
37.55	17.10956864
37.555	17.0854322
37.56	17.06132609
37.565	17.03725028
37.57	17.01320471
37.575	16.98918937
37.58	16.96520422
37.585	16.94124922
37.59	16.91732433
37.595	16.89342953
37.6	16.86956478
37.605	16.84573004
37.61	16.82192528
37.615	16.79815046
37.62	16.77440556
37.625	16.75069053
37.63	16.72700534
37.635	16.70334996
37.64	16.67972435
37.645	16.65612848
37.65	16.63256232
37.655	16.60902582
37.66	16.58551897
37.665	16.56204171
37.67	16.53859403
37.675	16.51517587
37.68	16.49178722
37.685	16.46842804
37.69	16.44509829
37.695	16.42179793
37.7	16.39852695
37.705	16.37528529
37.71	16.35207293
37.715	16.32888984
37.72	16.30573598
37.725	16.28261131
37.73	16.25951581
37.735	16.23644943
37.74	16.21341216
37.745	16.19040394
37.75	16.16742476
37.755	16.14447457
37.76	16.12155335
37.765	16.09866105
37.77	16.07579765
37.775	16.05296312
37.78	16.03015741
37.785	16.0073805
37.79	15.98463236
37.795	15.96191295
37.8	15.93922223
37.805	15.91656018
37.81	15.89392676
37.815	15.87132194
37.82	15.84874569
37.825	15.82619797
37.83	15.80367875
37.835	15.781188
37.84	15.75872568
37.845	15.73629177
37.85	15.71388622
37.855	15.69150902
37.86	15.66916011
37.865	15.64683948
37.87	15.62454709
37.875	15.60228291
37.88	15.5800469
37.885	15.55783904
37.89	15.53565928
37.895	15.5135076
37.9	15.49138397
37.905	15.46928835
37.91	15.44722071
37.915	15.42518102
37.92	15.40316925
37.925	15.38118537
37.93	15.35922933
37.935	15.33730112
37.94	15.31540069
37.945	15.29352803
37.95	15.27168308
37.955	15.24986583
37.96	15.22807625
37.965	15.20631429
37.97	15.18457993
37.975	15.16287313
37.98	15.14119387
37.985	15.11954211
37.99	15.09791783
37.995	15.07632098
38	15.05475154
38.005	15.03320948
38.01	15.01169476
38.015	14.99020736
38.02	14.96874724
38.025	14.94731437
38.03	14.92590871
38.035	14.90453025
38.04	14.88317895
38.045	14.86185477
38.05	14.84055768
38.055	14.81928766
38.06	14.79804467
38.065	14.77682868
38.07	14.75563966
38.075	14.73447759
38.08	14.71334242
38.085	14.69223412
38.09	14.67115268
38.095	14.65009805
38.1	14.6290702
38.105	14.60806911
38.11	14.58709474
38.115	14.56614706
38.12	14.54522605
38.125	14.52433167
38.13	14.50346389
38.135	14.48262267
38.14	14.461808
38.145	14.44101984
38.15	14.42025815
38.155	14.39952291
38.16	14.37881409
38.165	14.35813166
38.17	14.33747559
38.175	14.31684584
38.18	14.29624239
38.185	14.2756652
38.19	14.25511425
38.195	14.2345895
38.2	14.21409093
38.205	14.19361851
38.21	14.1731722
38.215	14.15275198
38.22	14.13235781
38.225	14.11198967
38.23	14.09164752
38.235	14.07133134
38.24	14.05104109
38.245	14.03077675
38.25	14.01053829
38.255	13.99032567
38.26	13.97013887
38.265	13.94997786
38.27	13.9298426
38.275	13.90973307
38.28	13.88964924
38.285	13.86959108
38.29	13.84955855
38.295	13.82955164
38.3	13.80957031
38.305	13.78961452
38.31	13.76968426
38.315	13.74977949
38.32	13.72990018
38.325	13.7100463
38.33	13.69021783
38.335	13.67041473
38.34	13.65063698
38.345	13.63088455
38.35	13.6111574
38.355	13.59145551
38.36	13.57177885
38.365	13.55212738
38.37	13.53250109
38.375	13.51289995
38.38	13.49332391
38.385	13.47377296
38.39	13.45424706
38.395	13.43474619
38.4	13.41527032
38.405	13.39581941
38.41	13.37639345
38.415	13.3569924
38.42	13.33761623
38.425	13.31826491
38.43	13.29893842
38.435	13.27963673
38.44	13.2603598
38.445	13.24110762
38.45	13.22188014
38.455	13.20267735
38.46	13.18349921
38.465	13.1643457
38.47	13.14521679
38.475	13.12611244
38.48	13.10703264
38.485	13.08797735
38.49	13.06894654
38.495	13.04994019
38.5	13.03095827
38.505	13.01200075
38.51	12.9930676
38.515	12.97415879
38.52	12.9552743
38.525	12.9364141
38.53	12.91757816
38.535	12.89876645
38.54	12.87997894
38.545	12.86121561
38.55	12.84247642
38.555	12.82376136
38.56	12.80507039
38.565	12.78640348
38.57	12.76776062
38.575	12.74914176
38.58	12.73054688
38.585	12.71197595
38.59	12.69342896
38.595	12.67490586
38.6	12.65640663
38.605	12.63793125
38.61	12.61947968
38.615	12.6010519
38.62	12.58264788
38.625	12.5642676
38.63	12.54591102
38.635	12.52757813
38.64	12.50926888
38.645	12.49098326
38.65	12.47272124
38.655	12.45448279
38.66	12.43626788
38.665	12.41807648
38.67	12.39990858
38.675	12.38176413
38.68	12.36364312
38.685	12.34554552
38.69	12.3274713
38.695	12.30942044
38.7	12.2913929
38.705	12.27338865
38.71	12.25540769
38.715	12.23744997
38.72	12.21951546
38.725	12.20160415
38.73	12.18371601
38.735	12.165851
38.74	12.14800911
38.745	12.1301903
38.75	12.11239455
38.755	12.09462184
38.76	12.07687213
38.765	12.0591454
38.77	12.04144162
38.775	12.02376077
38.78	12.00610281
38.785	11.98846773
38.79	11.9708555
38.795	11.95326609
38.8	11.93569947
38.805	11.91815562
38.81	11.90063451
38.815	11.88313612
38.82	11.86566041
38.825	11.84820737
38.83	11.83077696
38.835	11.81336917
38.84	11.79598396
38.845	11.77862131
38.85	11.76128119
38.855	11.74396357
38.86	11.72666844
38.865	11.70939576
38.87	11.69214551
38.875	11.67491766
38.88	11.65771219
38.885	11.64052906
38.89	11.62336827
38.895	11.60622977
38.9	11.58911354
38.905	11.57201957
38.91	11.55494781
38.915	11.53789825
38.92	11.52087086
38.925	11.50386562
38.93	11.48688249
38.935	11.46992146
38.94	11.4529825
38.945	11.43606557
38.95	11.41917067
38.955	11.40229776
38.96	11.38544681
38.965	11.3686178
38.97	11.35181071
38.975	11.33502551
38.98	11.31826218
38.985	11.30152068
38.99	11.284801
38.995	11.2681031
39	11.25142697
39.005	11.23477258
39.01	11.21813991
39.015	11.20152892
39.02	11.18493959
39.025	11.1683719
39.03	11.15182582
39.035	11.13530134
39.04	11.11879841
39.045	11.10231703
39.05	11.08585715
39.055	11.06941877
39.06	11.05300184
39.065	11.03660636
39.07	11.02023229
39.075	11.00387961
39.08	10.98754829
39.085	10.97123831
39.09	10.95494965
39.095	10.93868228
39.1	10.92243617
39.105	10.9062113
39.11	10.89000765
39.115	10.87382519
39.12	10.8576639
39.125	10.84152375
39.13	10.82540471
39.135	10.80930678
39.14	10.7932299
39.145	10.77717408
39.15	10.76113927
39.155	10.74512546
39.16	10.72913262
39.165	10.71316073
39.17	10.69720976
39.175	10.68127969
39.18	10.6653705
39.185	10.64948215
39.19	10.63361463
39.195	10.61776792
39.2	10.60194198
39.205	10.58613679
39.21	10.57035233
39.215	10.55458858
39.22	10.53884551
39.225	10.5231231
39.23	10.50742132
39.235	10.49174015
39.24	10.47607956
39.245	10.46043954
39.25	10.44482006
39.255	10.42922109
39.26	10.41364261
39.265	10.39808459
39.27	10.38254702
39.275	10.36702987
39.28	10.35153311
39.285	10.33605673
39.29	10.32060069
39.295	10.30516498
39.3	10.28974957
39.305	10.27435443
39.31	10.25897955
39.315	10.2436249
39.32	10.22829045
39.325	10.21297619
39.33	10.19768209
39.335	10.18240812
39.34	10.16715427
39.345	10.15192051
39.35	10.13670681
39.355	10.12151315
39.36	10.10633952
39.365	10.09118588
39.37	10.07605221
39.375	10.0609385
39.38	10.04584471
39.385	10.03077082
39.39	10.01571681
39.395	10.00068266
39.4	9.985668348
39.405	9.970673843
39.41	9.955699127
39.415	9.940744175
39.42	9.925808966
39.425	9.910893475
39.43	9.89599768
39.435	9.881121558
39.44	9.866265086
39.445	9.851428242
39.45	9.836611002
39.455	9.821813344
39.46	9.807035245
39.465	9.792276682
39.47	9.777537632
39.475	9.762818073
39.48	9.748117981
39.485	9.733437335
39.49	9.718776112
39.495	9.704134289
39.5	9.689511843
39.505	9.674908752
39.51	9.660324993
39.515	9.645760544
39.52	9.631215382
39.525	9.616689485
39.53	9.60218283
39.535	9.587695396
39.54	9.573227159
39.545	9.558778097
39.55	9.544348188
39.555	9.529937409
39.56	9.515545739
39.565	9.501173154
39.57	9.486819633
39.575	9.472485154
39.58	9.458169693
39.585	9.44387323
39.59	9.429595742
39.595	9.415337206
39.6	9.401097601
39.605	9.386876905
39.61	9.372675095
39.615	9.35849215
39.62	9.344328047
39.625	9.330182764
39.63	9.31605628
39.635	9.301948573
39.64	9.28785962
39.645	9.2737894
39.65	9.259737891
39.655	9.245705071
39.66	9.231690918
39.665	9.21769541
39.67	9.203718526
39.675	9.189760244
39.68	9.175820542
39.685	9.161899399
39.69	9.147996792
39.695	9.134112701
39.7	9.120247103
39.705	9.106399976
39.71	9.0925713
39.715	9.078761053
39.72	9.064969213
39.725	9.051195759
39.73	9.037440668
39.735	9.023703921
39.74	9.009985494
39.745	8.996285368
39.75	8.98260352
39.755	8.968939929
39.76	8.955294573
39.765	8.941667432
39.77	8.928058484
39.775	8.914467708
39.78	8.900895082
39.785	8.887340586
39.79	8.873804197
39.795	8.860285896
39.8	8.84678566
39.805	8.833303468
39.81	8.8198393
39.815	8.806393135
39.82	8.79296495
39.825	8.779554726
39.83	8.766162441
39.835	8.752788073
39.84	8.739431604
39.845	8.72609301
39.85	8.712772271
39.855	8.699469367
39.86	8.686184276
39.865	8.672916978
39.87	8.659667451
39.875	8.646435675
39.88	8.63322163
39.885	8.620025293
39.89	8.606846645
39.895	8.593685665
39.9	8.580542331
39.905	8.567416625
39.91	8.554308523
39.915	8.541218007
39.92	8.528145055
39.925	8.515089647
39.93	8.502051762
39.935	8.48903138
39.94	8.47602848
39.945	8.463043041
39.95	8.450075044
39.955	8.437124467
39.96	8.42419129
39.965	8.411275493
39.97	8.398377055
39.975	8.385495956
39.98	8.372632176
39.985	8.359785694
39.99	8.34695649
39.995	8.334144543
40	8.321349834
